sujet	session	treatment	trial	accuracy	conf	rt_trial	rt_conf	xc	xc_real	xc_diff	xc_o	s_o	stimuli	treat_block_e	treat_block_h	treat_mixed	keyword	elicit	gain	age	payment	hard	mixed
1	1	3	1	0	0.6	1.524385227	1.680846369	5	5	60	53	0	1	200	1	197	1	0	2	20	18.4	0	1
1	1	3	2	1	0.9	1.091768961	0.76785885	5	5	53	53	1	0	199	2	69	1	1	3	20	18.4	1	1
1	1	3	3	1	0.8	1.13923562	0.758983867	5	5	53	53	0	0	198	3	89	1	1	1	20	18.4	1	1
1	1	3	4	1	0.8	1.220639979	1.280170675	5	5	53	53	0	1	197	4	33	2	1	1	20	18.4	1	1
1	1	3	5	0	0.5	2.283392186	1.625881902	5	5	53	53	0	1	196	5	66	1	0	2	20	18.4	1	1
1	1	3	6	1	0.8	1.188501522	0.753059194	5	5	60	53	1	1	195	6	148	2	1	3	20	18.4	0	1
1	1	3	7	0	0.7	1.356586416	1.132349234	5	5	53	53	1	1	194	7	97	1	1	3	20	18.4	1	1
1	1	3	8	1	0.7	1.164210139	1.272093325	5	5	53	53	1	0	193	8	75	1	1	3	20	18.4	1	1
1	1	3	9	1	0.8	1.30781314	1.211700018	5	5	60	53	0	1	192	9	172	2	1	3	20	18.4	0	1
1	1	3	10	1	0.7	1.301775253	1.131990989	5	5	53	53	1	0	191	10	17	1	1	1	20	18.4	1	1
1	1	3	11	1	0.9	1.2676711	0.62774144	5	5	60	53	0	1	190	11	164	2	1	1	20	18.4	0	1
1	1	3	12	1	0.6	1.484012267	1.655747731	5	5	60	53	1	1	189	12	141	2	1	1	20	18.4	0	1
1	1	3	13	1	0.9	1.403688737	0.94725524	5	5	53	53	0	0	188	13	39	1	1	1	20	18.4	1	1
1	1	3	14	1	0.8	1.555969157	1.379308962	5	5	60	53	1	1	187	14	150	2	1	1	20	18.4	0	1
1	1	3	15	1	0.8	1.632822169	2.284841651	5	5	53	53	0	0	186	15	54	1	1	1	20	18.4	1	1
1	1	3	16	1	0.6	2.868285985	0.739779434	5	5	53	53	0	1	185	16	14	2	0	4	20	18.4	1	1
1	1	3	17	1	0.9	1.503520423	0.595890349	5	5	53	53	0	0	184	17	42	1	1	1	20	18.4	1	1
1	1	3	18	1	0.8	1.156053571	0.491846318	5	5	60	53	1	0	183	18	190	1	1	1	20	18.4	0	1
1	1	3	19	1	0.7	1.324187855	0.843485746	5	5	53	53	1	0	182	19	62	1	1	1	20	18.4	1	1
1	1	3	20	1	0.9	1.404112729	0.784953261	5	5	60	53	1	1	181	20	127	2	1	1	20	18.4	0	1
1	1	3	21	0	0.6	1.606713582	0.507720709	5	5	53	53	1	1	180	21	57	1	0	4	20	18.4	1	1
1	1	3	22	1	0.7	1.516154572	1.046979485	5	5	53	53	0	1	179	22	90	2	1	1	20	18.4	1	1
1	1	3	23	1	1	1.971798903	0.721075646	5	5	53	53	0	0	178	23	77	1	1	1	20	18.4	1	1
1	1	3	24	0	0.8	1.435891017	1.000875247	5	5	60	53	1	1	177	24	106	1	0	2	20	18.4	0	1
1	1	3	25	1	0.9	1.396414792	0.787670086	5	5	53	53	1	0	176	25	80	1	1	1	20	18.4	1	1
1	1	3	26	0	0.6	2.107414998	0.798271508	5	5	53	53	1	0	175	26	51	2	0	2	20	18.4	1	1
1	1	3	27	1	0.9	1.336149453	0.756128812	5	5	60	53	0	1	174	27	102	2	1	1	20	18.4	0	1
1	1	3	28	1	0.8	1.439603038	1.554539833	5	5	60	53	0	0	173	28	161	1	1	1	20	18.4	0	1
1	1	3	29	1	0.6	1.460812616	0.819305653	5	5	53	53	1	1	172	29	2	2	1	3	20	18.4	1	1
1	1	3	30	1	0.8	1.328102251	1.545925917	5	5	60	53	0	0	171	30	122	1	1	1	20	18.4	0	1
1	1	3	31	0	0.8	1.043290427	0.720083015	5	5	53	53	1	1	170	31	37	1	0	2	20	18.4	1	1
1	1	3	32	1	0.8	1.092793022	0.835946565	5	5	53	53	1	0	169	32	99	1	1	1	20	18.4	1	1
1	1	3	33	0	0.8	0.892616497	1.118940865	5	5	53	53	1	1	168	33	34	1	0	2	20	18.4	1	1
1	1	3	34	1	0.6	1.909433806	0.646467679	5	5	60	53	1	1	167	34	198	2	1	3	20	18.4	0	1
1	1	3	35	1	0.9	1.419829005	0.315285419	5	5	53	53	0	0	166	35	74	1	1	1	20	18.4	1	1
1	1	3	36	1	0.7	1.142844048	1.796964892	5	5	60	53	1	0	165	36	196	1	1	1	20	18.4	0	1
1	1	3	37	1	0.9	1.464119888	0.324947129	5	5	53	53	1	1	164	37	44	2	1	1	20	18.4	1	1
1	1	3	38	0	0.7	1.766808682	1.364503213	5	5	53	53	0	1	163	38	52	1	1	3	20	18.4	1	1
1	1	3	39	1	0.8	1.747312072	0.763918475	5	5	53	53	0	0	162	39	3	1	1	1	20	18.4	1	1
1	1	3	40	0	0.7	1.258290661	2.155860946	5	5	53	53	1	1	161	40	7	1	0	2	20	18.4	1	1
1	1	3	41	1	0.7	1.263085435	1.331913182	5	5	53	53	0	0	160	41	5	1	1	1	20	18.4	1	1
1	1	3	42	1	1	1.524439108	0.643081831	5	5	60	53	0	1	159	42	103	2	1	1	20	18.4	0	1
1	1	3	43	1	0.9	1.249723571	0.755548628	5	5	60	53	1	1	158	43	109	2	1	1	20	18.4	0	1
1	1	3	44	1	0.9	1.277116965	0.3928546	5	5	60	53	1	0	157	44	170	1	1	1	20	18.4	0	1
1	1	3	45	1	0.8	1.099848235	0.507660734	5	5	60	53	1	0	156	45	183	1	1	3	20	18.4	0	1
1	1	3	46	1	0.8	1.49818331	1.019216941	5	5	53	53	0	0	155	46	46	1	1	1	20	18.4	1	1
1	1	3	47	1	0.9	1.092000521	0.910609376	5	5	53	53	0	0	154	47	96	1	1	1	20	18.4	1	1
1	1	3	48	1	0.9	1.121813111	0.355817777	5	5	60	53	1	1	153	48	185	2	1	1	20	18.4	0	1
1	1	3	49	1	1	0.60916594	1.211361658	5	5	60	53	1	0	152	49	186	1	1	1	20	18.4	0	1
1	1	3	50	0	0.7	1.172689352	0.603888161	5	5	53	53	1	1	151	50	84	1	1	3	20	18.4	1	1
1	1	3	51	1	0.8	1.195961485	0.42853702	5	5	53	53	0	0	150	51	64	1	1	1	20	18.4	1	1
1	1	3	52	0	0.6	1.059089128	0.691128994	5	5	53	53	1	1	149	52	83	1	0	2	20	18.4	1	1
1	1	3	53	1	0.7	1.044644831	1.059600164	5	5	60	53	1	0	148	53	140	1	1	1	20	18.4	0	1
1	1	3	54	1	0.9	1.004715107	0.442848218	5	5	60	53	0	1	147	54	119	2	1	3	20	18.4	0	1
1	1	3	55	0	0.6	1.316575871	0.307928087	5	5	53	53	0	1	146	55	32	1	0	2	20	18.4	1	1
1	1	3	56	1	0.8	1.060965985	2.147404183	5	5	53	53	1	1	145	56	56	2	1	3	20	18.4	1	1
1	1	3	57	1	0.6	4.675524523	0.49497559	5	5	53	53	1	0	144	57	30	1	1	3	20	18.4	1	1
1	1	3	58	1	0.7	1.123785543	0.99603493	5	5	60	53	0	0	143	58	113	1	1	1	20	18.4	0	1
1	1	3	59	1	0.6	1.310917075	0.92070438	5	5	60	53	1	1	142	59	153	2	1	3	20	18.4	0	1
1	1	3	60	1	0.8	1.055927463	0.739671351	5	5	53	53	0	1	141	60	73	2	1	3	20	18.4	1	1
1	1	3	61	0	0.9	1.185973602	0.539052553	5	5	60	53	0	1	140	61	104	1	0	2	20	18.4	0	1
1	1	3	62	1	0.6	1.43524284	0.993277053	5	5	53	53	0	0	139	62	23	1	1	1	20	18.4	1	1
1	1	3	63	1	0.6	1.093970387	2.444423598	5	5	60	53	1	0	138	63	132	1	1	3	20	18.4	0	1
1	1	3	64	0	0.7	1.827530727	2.321365321	5	5	53	53	0	1	137	64	31	1	0	2	20	18.4	1	1
1	1	3	65	1	0.9	1.083983466	0.819087242	5	5	53	53	1	0	136	65	72	1	1	1	20	18.4	1	1
1	1	3	66	1	0.7	1.237808798	0.918039191	5	5	53	53	1	1	135	66	45	2	1	1	20	18.4	1	1
1	1	3	67	1	0.8	1.039608554	1.411580197	5	5	60	53	0	0	134	67	116	1	1	1	20	18.4	0	1
1	1	3	68	1	0.8	1.074662682	0.571775362	5	5	60	53	1	0	133	68	121	1	1	1	20	18.4	0	1
1	1	3	69	1	0.7	1.044217952	1.307236613	5	5	53	53	0	1	132	69	68	2	1	3	20	18.4	1	1
1	1	3	70	1	0.7	1.20514436	0.826026034	5	5	60	53	1	0	131	70	180	1	1	1	20	18.4	0	1
1	1	3	71	1	0.9	1.033203121	0.491612834	5	5	60	53	1	0	130	71	134	1	1	1	20	18.4	0	1
1	1	3	72	1	0.7	1.083381794	0.375147291	5	5	60	53	0	0	129	72	130	1	1	1	20	18.4	0	1
1	1	3	73	1	0.8	1.093249728	0.372048809	5	5	60	53	1	0	128	73	166	1	1	3	20	18.4	0	1
1	1	3	74	1	1	1.003754869	1.159255133	5	5	60	53	0	0	127	74	175	1	1	1	20	18.4	0	1
1	1	3	75	1	0.6	1.469288622	1.907482349	5	5	53	53	0	1	126	75	20	2	1	3	20	18.4	1	1
1	1	3	76	1	0.8	0.992040868	1.323640192	5	5	60	53	0	0	125	76	120	1	1	1	20	18.4	0	1
1	1	3	77	0	0.6	1.273233358	0.379560407	5	5	53	53	0	1	124	77	36	1	1	3	20	18.4	1	1
1	1	3	78	1	0.6	0.635535273	0.951432627	5	5	60	53	1	1	123	78	169	2	1	1	20	18.4	0	1
1	1	3	79	1	0.7	1.276890215	0.440198423	5	5	60	53	1	0	122	79	163	1	1	1	20	18.4	0	1
1	1	3	80	1	0.8	0.979637637	0.288659189	5	5	60	53	0	0	121	80	139	1	1	1	20	18.4	0	1
1	1	3	81	1	0.8	1.263365745	0.395988682	5	5	53	53	0	0	120	81	22	1	1	1	20	18.4	1	1
1	1	3	82	1	0.6	1.248725809	0.395851093	5	5	53	53	0	0	119	82	87	1	1	1	20	18.4	1	1
1	1	3	83	1	0.8	1.042250651	0.379431157	5	5	53	53	1	0	118	83	86	1	1	1	20	18.4	1	1
1	1	3	84	1	0.7	1.070444564	0.299240726	5	5	60	53	1	1	117	84	157	2	1	1	20	18.4	0	1
1	1	3	85	1	0.7	1.007797233	0.332031207	5	5	53	53	0	1	116	85	43	2	1	1	20	18.4	1	1
1	1	3	86	1	0.8	0.625442835	0.974696422	5	5	60	53	0	1	115	86	108	2	1	3	20	18.4	0	1
1	1	3	87	1	0.6	1.027271071	0.483100907	5	5	60	53	0	0	114	87	133	1	1	1	20	18.4	0	1
1	1	3	88	1	0.6	1.382663893	0.478882147	5	5	53	53	1	0	113	88	100	1	0	4	20	18.4	1	1
1	1	3	89	0	0.8	4.375211307	1.099254709	5	5	53	53	0	1	112	89	92	1	0	2	20	18.4	1	1
1	1	3	90	1	0.8	1.339916959	0.683551648	5	5	53	53	1	0	111	90	15	1	1	1	20	18.4	1	1
1	1	3	91	1	0.9	1.35812363	0.722836402	5	5	53	53	0	1	110	91	53	2	1	3	20	18.4	1	1
1	1	3	92	1	0.7	1.116131865	0.470973496	5	5	53	53	1	0	109	92	28	1	1	1	20	18.4	1	1
1	1	3	93	1	0.9	1.134805826	0.803300729	5	5	60	53	0	1	108	93	182	2	1	1	20	18.4	0	1
1	1	3	94	1	0.8	1.107370738	0.974156328	5	5	53	53	1	1	107	94	26	2	1	3	20	18.4	1	1
1	1	3	95	1	0.8	1.280044824	1.077705487	5	5	60	53	0	0	106	95	143	1	1	3	20	18.4	0	1
1	1	3	96	1	0.7	1.092326373	0.923481821	5	5	60	53	0	1	105	96	115	2	1	1	20	18.4	0	1
1	1	3	97	1	0.9	0.679774521	1.294471609	5	5	53	53	1	1	104	97	50	2	1	1	20	18.4	1	1
1	1	3	98	1	0.9	1.267463593	0.443323205	5	5	60	53	1	0	103	98	146	1	1	1	20	18.4	0	1
1	1	3	99	1	0.6	2.639972636	0.638045554	5	5	53	53	0	1	102	99	71	2	1	3	20	18.4	1	1
1	1	3	100	1	0.7	1.144240787	0.339622666	5	5	53	53	0	0	101	100	35	1	1	3	20	18.4	1	1
1	1	3	101	1	0.7	1.475607782	3.56547705	5	5	60	60	0	0	100	101	193	1	1	1	20	18.4	0	1
1	1	3	102	1	0.8	1.365974551	0.493690141	5	5	60	60	1	1	99	102	136	2	1	3	20	18.4	0	1
1	1	3	103	0	0.6	1.11586727	1.398792423	5	5	53	60	1	0	98	103	76	2	0	2	20	18.4	1	1
1	1	3	104	1	0.7	1.089056305	0.377074501	5	5	60	60	1	0	97	104	188	1	1	1	20	18.4	0	1
1	1	3	105	1	0.8	0.845812446	0.643118072	5	5	60	60	0	1	96	105	125	2	1	1	20	18.4	0	1
1	1	3	106	1	0.9	0.969389649	1.355544843	5	5	60	60	1	1	95	106	135	2	1	1	20	18.4	0	1
1	1	3	107	1	0.6	1.244757532	0.364578903	5	5	60	60	0	0	94	107	110	1	1	1	20	18.4	0	1
1	1	3	108	1	0.6	1.030132862	0.877321136	5	5	60	60	1	1	93	108	112	2	1	3	20	18.4	0	1
1	1	3	109	1	0.7	1.143800758	1.060206967	5	5	60	60	1	0	92	109	151	1	1	3	20	18.4	0	1
1	1	3	110	1	0.9	1.028735161	0.877205997	5	5	60	60	0	1	91	110	137	2	1	1	20	18.4	0	1
1	1	3	111	1	0.7	1.062584983	1.579492864	5	5	60	60	1	1	90	111	159	2	1	1	20	18.4	0	1
1	1	3	112	1	0.8	1.144752336	0.359806259	5	5	53	60	1	0	89	112	27	1	1	1	20	18.4	1	1
1	1	3	113	1	0.8	0.835947399	0.683771662	5	5	60	60	0	0	88	113	171	1	1	1	20	18.4	0	1
1	1	3	114	1	0.7	1.267548264	0.303142293	5	5	53	60	1	0	87	114	11	1	1	1	20	18.4	1	1
1	1	3	115	1	0.8	0.997151231	0.819875252	5	5	60	60	1	1	86	115	152	2	1	3	20	18.4	0	1
1	1	3	116	0	0.7	1.216980556	0.787246735	5	5	53	60	0	1	85	116	19	1	1	3	20	18.4	1	1
1	1	3	117	1	0.6	1.246223546	1.386874122	5	5	60	60	0	0	84	117	156	1	1	3	20	18.4	0	1
1	1	3	118	1	0.7	1.224959445	0.491100643	5	5	53	60	1	1	83	118	21	2	1	1	20	18.4	1	1
1	1	3	119	1	0.8	1.081058494	0.279541741	5	5	60	60	1	0	82	119	131	1	1	1	20	18.4	0	1
1	1	3	120	0	0.8	1.096160268	0.932205102	5	5	53	60	0	1	81	120	48	1	0	2	20	18.4	1	1
1	1	3	121	1	0.7	1.125003961	1.456613228	5	5	60	60	0	0	80	121	149	1	1	1	20	18.4	0	1
1	1	3	122	0	0.6	2.184129138	0.500904112	5	5	53	60	0	1	79	122	12	1	0	2	20	18.4	1	1
1	1	3	123	1	0.7	1.239021443	0.620101232	5	5	53	60	1	0	78	123	47	1	1	1	20	18.4	1	1
1	1	3	124	1	0.6	1.221046011	0.35635306	5	5	53	60	1	0	77	124	95	1	1	1	20	18.4	1	1
1	1	3	125	0	0.6	2.900890449	0.459553916	5	5	53	60	1	0	76	125	61	2	0	2	20	18.4	1	1
1	1	3	126	1	0.7	1.181672738	0.332729096	5	5	60	60	1	0	75	126	192	1	1	1	20	18.4	0	1
1	1	3	127	1	1	1.110410208	0.612103742	5	5	60	60	1	0	74	127	178	1	1	1	20	18.4	0	1
1	1	3	128	1	0.9	1.05752818	0.310860436	5	5	60	60	1	1	73	128	165	2	1	1	20	18.4	0	1
1	1	3	129	1	0.8	1.580156627	0.451209085	5	5	60	60	1	0	72	129	142	1	1	3	20	18.4	0	1
1	1	3	130	1	0.7	1.428530156	0.491416873	5	5	60	60	0	1	71	130	111	2	1	1	20	18.4	0	1
1	1	3	131	1	0.8	1.228923232	0.627177934	5	5	60	60	0	1	70	131	128	2	1	1	20	18.4	0	1
1	1	3	132	1	0.8	1.056487762	1.647034071	5	5	60	60	0	1	69	132	123	2	1	1	20	18.4	0	1
1	1	3	133	1	0.8	1.060250457	0.940327032	5	5	60	60	0	0	68	133	107	1	1	3	20	18.4	0	1
1	1	3	134	1	0.9	1.056588789	0.495305291	5	5	60	60	0	1	67	134	147	2	1	1	20	18.4	0	1
1	1	3	135	1	0.8	1.090954971	0.35623311	5	5	53	60	1	0	66	135	55	1	1	1	20	18.4	1	1
1	1	3	136	1	0.7	0.969753026	0.24444143	5	5	53	60	1	0	65	136	58	1	1	1	20	18.4	1	1
1	1	3	137	1	0.8	1.047143245	1.392673714	5	5	60	60	1	1	64	137	200	2	1	1	20	18.4	0	1
1	1	3	138	0	0.6	2.020059025	0.651276244	5	5	60	60	1	0	63	138	144	2	0	4	20	18.4	0	1
1	1	3	139	0	0.5	2.025550405	0.643739949	5	5	53	60	0	1	62	139	78	1	1	3	20	18.4	1	1
1	1	3	140	1	0.7	1.00295403	0.867140499	5	5	60	60	0	1	61	140	145	2	1	1	20	18.4	0	1
1	1	3	141	1	0.7	0.651351934	1.195512925	5	5	60	60	1	0	60	141	105	1	1	3	20	18.4	0	1
1	1	3	142	0	0.6	1.00242003	0.804599968	5	5	53	60	0	1	59	142	65	1	0	4	20	18.4	1	1
1	1	3	143	1	0.8	1.051746549	0.235286137	5	5	60	60	0	1	58	143	189	2	1	1	20	18.4	0	1
1	1	3	144	1	0.9	0.574801682	0.276591432	5	5	60	60	0	1	57	144	118	2	1	1	20	18.4	0	1
1	1	3	145	1	0.8	0.703677063	0.2742986	5	5	60	60	1	1	56	145	176	2	1	1	20	18.4	0	1
1	1	3	146	1	0.7	1.043502744	0.345138741	5	5	53	60	0	1	55	146	49	2	1	1	20	18.4	1	1
1	1	3	147	1	0.8	0.724321852	0.96372553	5	5	60	60	1	1	54	147	126	2	1	1	20	18.4	0	1
1	1	3	148	0	0.7	0.96332418	0.34655825	5	5	53	60	1	0	53	148	93	2	0	2	20	18.4	1	1
1	1	3	149	0	0.6	1.63605375	0.291534129	5	5	53	60	0	0	52	149	81	2	0	2	20	18.4	1	1
1	1	3	150	1	0.8	0.655013602	1.282573193	5	5	60	60	1	0	51	150	179	1	1	1	20	18.4	0	1
1	1	3	151	0	0.7	1.299340342	0.411003862	5	5	53	60	0	1	50	151	88	1	0	2	20	18.4	1	1
1	1	3	152	1	0.7	1.065599437	0.885514587	5	5	53	60	1	1	49	152	70	2	1	1	20	18.4	1	1
1	1	3	153	1	0.7	1.000740095	0.503079239	5	5	60	60	1	0	48	153	187	1	1	1	20	18.4	0	1
1	1	3	154	1	0.8	0.737837342	0.365727404	5	5	53	60	0	1	47	154	8	2	1	1	20	18.4	1	1
1	1	3	155	1	0.8	0.946294233	1.106288755	5	5	60	60	1	1	46	155	124	2	1	1	20	18.4	0	1
1	1	3	156	1	0.7	0.977473093	1.187150455	5	5	60	60	0	0	45	156	162	1	1	1	20	18.4	0	1
1	1	3	157	0	0.6	0.925034301	0.993472372	5	5	53	60	1	1	44	157	29	1	0	2	20	18.4	1	1
1	1	3	158	1	0.8	0.708761127	0.559970596	5	5	60	60	0	0	43	158	177	1	1	1	20	18.4	0	1
1	1	3	159	1	0.7	0.796314984	0.771783188	5	5	60	60	1	0	42	159	154	1	1	1	20	18.4	0	1
1	1	3	160	1	0.7	0.892037596	0.895579764	5	5	60	60	0	0	41	160	168	1	1	1	20	18.4	0	1
1	1	3	161	1	0.7	0.711687061	1.003084691	5	5	60	60	0	1	40	161	114	2	1	1	20	18.4	0	1
1	1	3	162	1	0.5	1.14837648	0.532480986	5	5	53	60	0	1	39	162	59	2	1	1	20	18.4	1	1
1	1	3	163	1	0.6	1.158760774	2.127633357	5	5	60	60	0	0	38	163	101	1	0	4	20	18.4	0	1
1	1	3	164	1	0.7	1.476845443	0.346560816	5	5	53	60	1	0	37	164	38	1	1	1	20	18.4	1	1
1	1	3	165	1	0.6	1.117871454	0.652737768	5	5	60	60	1	0	36	165	195	1	1	1	20	18.4	0	1
1	1	3	166	0	0.6	1.375904384	0.347037086	5	5	53	60	0	1	35	166	40	1	0	4	20	18.4	1	1
1	1	3	167	1	0.9	2.182233999	1.108106279	5	5	60	60	1	1	34	167	199	2	1	1	20	18.4	0	1
1	1	3	168	1	0.9	0.978426916	0.290838806	5	5	60	60	0	0	33	168	117	1	1	1	20	18.4	0	1
1	1	3	169	1	0.7	1.639714456	0.571865164	5	5	60	60	1	1	32	169	174	2	1	3	20	18.4	0	1
1	1	3	170	0	0.7	0.97507731	0.264110587	5	5	53	60	0	1	31	170	63	1	0	2	20	18.4	1	1
1	1	3	171	1	0.9	0.913038706	0.443081702	5	5	60	60	0	0	30	171	160	1	1	1	20	18.4	0	1
1	1	3	172	0	0.8	1.129535103	1.027158947	5	5	53	60	1	1	29	172	79	1	0	2	20	18.4	1	1
1	1	3	173	0	0.8	1.412221831	4.028929325	5	5	53	60	1	0	28	173	4	2	1	3	20	18.4	1	1
1	1	3	174	0	0.7	0.976395792	1.803953716	5	5	53	60	1	1	27	174	94	1	1	3	20	18.4	1	1
1	1	3	175	1	0.6	2.393320158	0.394320614	5	5	60	60	0	1	26	175	129	2	1	1	20	18.4	0	1
1	1	3	176	0	0.7	1.193234718	2.26040498	5	5	60	60	1	1	25	176	167	1	0	2	20	18.4	0	1
1	1	3	177	1	0.6	1.38001474	0.516143475	5	5	53	60	0	0	24	177	9	1	1	1	20	18.4	1	1
1	1	3	178	1	0.8	0.712303807	1.64404271	5	5	60	60	0	1	23	178	173	2	1	1	20	18.4	0	1
1	1	3	179	1	0.6	1.658082129	0.724385162	5	5	53	60	0	1	22	179	6	2	0	4	20	18.4	1	1
1	1	3	180	1	0.8	1.069913771	0.768221264	5	5	53	60	0	0	21	180	41	1	1	1	20	18.4	1	1
1	1	3	181	1	0.8	1.10771423	0.476937297	5	5	60	60	0	0	20	181	158	1	1	1	20	18.4	0	1
1	1	3	182	1	0.7	1.141285987	2.356458897	5	5	60	60	1	0	19	182	194	1	1	3	20	18.4	0	1
1	1	3	183	1	0.6	1.810965504	0.293482507	5	5	53	60	0	1	18	183	18	2	1	1	20	18.4	1	1
1	1	3	184	1	0.9	1.033631604	0.457851851	5	5	60	60	1	1	17	184	138	2	1	1	20	18.4	0	1
1	1	3	185	0	0.7	1.400092496	0.492097122	5	5	53	60	1	1	16	185	10	1	0	2	20	18.4	1	1
1	1	3	186	1	0.8	1.702743765	1.130888351	5	5	60	60	0	1	15	186	184	2	1	1	20	18.4	0	1
1	1	3	187	0	0.6	2.996194842	1.349582967	5	5	53	60	0	0	14	187	13	2	1	3	20	18.4	1	1
1	1	3	188	1	0.8	1.078649561	0.246918035	5	5	53	60	0	0	13	188	67	1	1	1	20	18.4	1	1
1	1	3	189	1	0.7	1.614960914	0.315512489	5	5	53	60	1	0	12	189	60	1	0	4	20	18.4	1	1
1	1	3	190	1	0.8	1.165736448	1.277047176	5	5	53	60	0	0	11	190	85	1	1	1	20	18.4	1	1
1	1	3	191	1	0.9	1.132153145	0.652044691	5	5	60	60	1	1	10	191	191	2	1	1	20	18.4	0	1
1	1	3	192	1	0.8	0.969131148	0.421098866	5	5	60	60	0	0	9	192	181	1	1	1	20	18.4	0	1
1	1	3	193	1	1	0.996646737	1.116075867	5	5	53	60	0	0	8	193	82	1	1	1	20	18.4	1	1
1	1	3	194	1	0.8	1.081044061	0.267089441	5	5	53	60	0	1	7	194	25	2	1	1	20	18.4	1	1
1	1	3	195	1	0.6	1.706930453	1.260582018	5	5	53	60	0	0	6	195	16	1	1	3	20	18.4	1	1
1	1	3	196	1	0.7	0.999981911	0.500977877	5	5	53	60	0	0	5	196	1	1	1	3	20	18.4	1	1
1	1	3	197	1	0.7	1.107088183	1.225325195	5	5	53	60	1	1	4	197	98	2	1	1	20	18.4	1	1
1	1	3	198	1	0.7	1.212326578	1.099460291	5	5	53	60	1	1	3	198	24	2	1	1	20	18.4	1	1
1	1	3	199	1	0.7	1.148267756	1.571087416	5	5	53	60	1	0	2	199	91	1	1	1	20	18.4	1	1
1	1	3	200	1	0.8	1.059762	1.25242545	5	5	60	60	1	1	1	200	155	2	1	1	20	18.4	0	1
2	1	3	1	1	0.6	1.120603098	1.330238476	5	5	60	53	0	1	200	1	197	2	1	1	18	16.2	0	1
2	1	3	2	1	0.7	1.059435376	2.558695599	5	5	53	53	1	0	199	2	69	1	1	1	18	16.2	1	1
2	1	3	3	1	0.5	1.001224066	0.79277786	5	5	53	53	0	0	198	3	89	1	1	3	18	16.2	1	1
2	1	3	4	1	0.6	1.067798836	0.791110428	5	5	53	53	0	1	197	4	33	2	1	1	18	16.2	1	1
2	1	3	5	1	0.6	1.163885454	1.081632332	5	5	53	53	0	1	196	5	66	2	1	3	18	16.2	1	1
2	1	3	6	1	0.7	1.032893731	0.498838667	5	5	60	53	1	1	195	6	148	2	1	1	18	16.2	0	1
2	1	3	7	0	0.6	1.227801761	1.413186409	5	5	53	53	1	1	194	7	97	1	0	2	18	16.2	1	1
2	1	3	8	1	0.7	0.894959666	0.940897084	5	5	53	53	1	0	193	8	75	1	1	3	18	16.2	1	1
2	1	3	9	1	0.7	0.653052244	0.795545689	5	5	60	53	0	1	192	9	172	2	1	1	18	16.2	0	1
2	1	3	10	1	0.6	0.768587619	0.739900474	5	5	53	53	1	0	191	10	17	1	1	3	18	16.2	1	1
2	1	3	11	1	0.6	0.77251678	0.667104666	5	5	60	53	0	1	190	11	164	2	1	1	18	16.2	0	1
2	1	3	12	1	0.7	0.884168343	0.499905066	5	5	60	53	1	1	189	12	141	2	1	1	18	16.2	0	1
2	1	3	13	0	0.5	2.276313163	0.465247879	5	5	53	53	0	0	188	13	39	2	0	2	18	16.2	1	1
2	1	3	14	0	0.5	0.95415495	0.533954806	5	5	60	53	1	1	187	14	150	1	1	3	18	16.2	0	1
2	1	3	15	0	0.6	1.134395735	0.595242158	5	5	53	53	0	0	186	15	54	2	0	2	18	16.2	1	1
2	1	3	16	0	0.5	2.635827436	0.563732854	5	5	53	53	0	1	185	16	14	1	1	3	18	16.2	1	1
2	1	3	17	0	0.6	1.107849599	0.47003433	5	5	53	53	0	0	184	17	42	2	0	4	18	16.2	1	1
2	1	3	18	0	0.6	1.382583016	0.807463066	5	5	60	53	1	0	183	18	190	2	1	3	18	16.2	0	1
2	1	3	19	1	0.7	1.041913066	0.466412741	5	5	53	53	1	0	182	19	62	1	1	1	18	16.2	1	1
2	1	3	20	1	0.7	0.693185113	0.895434142	5	5	60	53	1	1	181	20	127	2	1	3	18	16.2	0	1
2	1	3	21	1	0.5	1.122335957	0.740627229	5	5	53	53	1	1	180	21	57	2	1	3	18	16.2	1	1
2	1	3	22	1	0.5	1.074903142	1.169903925	5	5	53	53	0	1	179	22	90	2	0	4	18	16.2	1	1
2	1	3	23	1	0.6	0.817148091	1.539208549	5	5	53	53	0	0	178	23	77	1	1	1	18	16.2	1	1
2	1	3	24	1	0.6	0.795936841	0.910042053	5	5	60	53	1	1	177	24	106	2	1	3	18	16.2	0	1
2	1	3	25	1	0.5	0.667764069	0.90709013	5	5	53	53	1	0	176	25	80	1	1	3	18	16.2	1	1
2	1	3	26	0	0.7	0.832884943	0.610625253	5	5	53	53	1	0	175	26	51	2	0	2	18	16.2	1	1
2	1	3	27	1	0.7	0.700849592	0.551690075	5	5	60	53	0	1	174	27	102	2	1	3	18	16.2	0	1
2	1	3	28	0	0.6	0.619840229	0.39414901	5	5	60	53	0	0	173	28	161	2	1	3	18	16.2	0	1
2	1	3	29	0	0.5	0.727526902	0.450979612	5	5	53	53	1	1	172	29	2	1	0	2	18	16.2	1	1
2	1	3	30	0	0.5	0.671124271	0.412336175	5	5	60	53	0	0	171	30	122	2	0	4	18	16.2	0	1
2	1	3	31	0	0.6	0.700038166	0.43965108	5	5	53	53	1	1	170	31	37	1	1	3	18	16.2	1	1
2	1	3	32	1	0.6	0.824038476	0.785347701	5	5	53	53	1	0	169	32	99	1	1	1	18	16.2	1	1
2	1	3	33	1	0.6	0.582729201	1.544940808	5	5	53	53	1	1	168	33	34	2	1	3	18	16.2	1	1
2	1	3	34	1	0.7	0.971763854	0.784602664	5	5	60	53	1	1	167	34	198	2	1	1	18	16.2	0	1
2	1	3	35	1	0.6	1.00175903	0.478628068	5	5	53	53	0	0	166	35	74	1	1	1	18	16.2	1	1
2	1	3	36	1	0.6	0.801972823	0.819728426	5	5	60	53	1	0	165	36	196	1	1	1	18	16.2	0	1
2	1	3	37	0	0.7	1.195453128	0.852812793	5	5	53	53	1	1	164	37	44	1	0	4	18	16.2	1	1
2	1	3	38	0	0.6	1.165786371	0.426938955	5	5	53	53	0	1	163	38	52	1	1	3	18	16.2	1	1
2	1	3	39	0	0.7	0.820345045	0.805569525	5	5	53	53	0	0	162	39	3	2	0	2	18	16.2	1	1
2	1	3	40	0	0.6	0.650781214	0.60148693	5	5	53	53	1	1	161	40	7	1	0	2	18	16.2	1	1
2	1	3	41	1	0.5	0.902784313	0.330992493	5	5	53	53	0	0	160	41	5	1	1	3	18	16.2	1	1
2	1	3	42	1	0.7	1.212053363	0.35585099	5	5	60	53	0	1	159	42	103	2	1	3	18	16.2	0	1
2	1	3	43	1	0.7	0.612994425	0.404566051	5	5	60	53	1	1	158	43	109	2	1	1	18	16.2	0	1
2	1	3	44	1	0.8	0.723970098	0.411294792	5	5	60	53	1	0	157	44	170	1	1	1	18	16.2	0	1
2	1	3	45	1	0.6	0.8536815	0.523532634	5	5	60	53	1	0	156	45	183	1	1	3	18	16.2	0	1
2	1	3	46	1	0.5	0.619745937	0.37056057	5	5	53	53	0	0	155	46	46	1	1	3	18	16.2	1	1
2	1	3	47	1	0.5	0.642271505	1.25083548	5	5	53	53	0	0	154	47	96	1	1	1	18	16.2	1	1
2	1	3	48	1	0.8	0.677473598	0.392884083	5	5	60	53	1	1	153	48	185	2	1	1	18	16.2	0	1
2	1	3	49	1	0.6	0.795768783	0.339219966	5	5	60	53	1	0	152	49	186	1	1	1	18	16.2	0	1
2	1	3	50	0	0.7	0.771924086	1.994810723	5	5	53	53	1	1	151	50	84	1	0	2	18	16.2	1	1
2	1	3	51	1	0.5	1.027835308	1.330634888	5	5	53	53	0	0	150	51	64	1	1	3	18	16.2	1	1
2	1	3	52	1	0.6	1.049020901	0.412540154	5	5	53	53	1	1	149	52	83	2	1	3	18	16.2	1	1
2	1	3	53	1	0.5	0.984644358	0.350450999	5	5	60	53	1	0	148	53	140	1	1	1	18	16.2	0	1
2	1	3	54	1	0.6	0.836897171	0.355207302	5	5	60	53	0	1	147	54	119	2	1	1	18	16.2	0	1
2	1	3	55	1	0.5	0.86799531	0.388222073	5	5	53	53	0	1	146	55	32	2	1	1	18	16.2	1	1
2	1	3	56	0	0.5	0.907158637	0.372368799	5	5	53	53	1	1	145	56	56	1	0	2	18	16.2	1	1
2	1	3	57	0	0.6	0.772081561	0.523709672	5	5	53	53	1	0	144	57	30	2	1	3	18	16.2	1	1
2	1	3	58	1	0.5	0.918502884	0.387013593	5	5	60	53	0	0	143	58	113	1	1	3	18	16.2	0	1
2	1	3	59	1	0.5	0.866348404	0.374673185	5	5	60	53	1	1	142	59	153	2	1	1	18	16.2	0	1
2	1	3	60	0	0.5	1.120718237	0.443145343	5	5	53	53	0	1	141	60	73	1	1	3	18	16.2	1	1
2	1	3	61	1	0.6	0.956001344	0.514124904	5	5	60	53	0	1	140	61	104	2	1	1	18	16.2	0	1
2	1	3	62	1	0.6	0.984670657	0.530028852	5	5	53	53	0	0	139	62	23	1	1	1	18	16.2	1	1
2	1	3	63	1	0.6	0.622769381	0.487398524	5	5	60	53	1	0	138	63	132	1	1	3	18	16.2	0	1
2	1	3	64	0	0.5	0.635057833	0.730487933	5	5	53	53	0	1	137	64	31	1	0	2	18	16.2	1	1
2	1	3	65	1	0.6	0.645452744	1.131644071	5	5	53	53	1	0	136	65	72	1	1	1	18	16.2	1	1
2	1	3	66	0	0.6	0.873940528	0.403077261	5	5	53	53	1	1	135	66	45	1	0	2	18	16.2	1	1
2	1	3	67	1	0.6	0.677923571	0.523636548	5	5	60	53	0	0	134	67	116	1	1	3	18	16.2	0	1
2	1	3	68	1	0.6	0.83455879	0.347597859	5	5	60	53	1	0	133	68	121	1	1	1	18	16.2	0	1
2	1	3	69	0	0.6	0.611522953	0.445551398	5	5	53	53	0	1	132	69	68	1	0	2	18	16.2	1	1
2	1	3	70	1	0.6	0.580712182	0.323009729	5	5	60	53	1	0	131	70	180	1	1	1	18	16.2	0	1
2	1	3	71	1	0.5	0.625566715	0.385103054	5	5	60	53	1	0	130	71	134	1	1	3	18	16.2	0	1
2	1	3	72	1	0.5	0.685919163	0.35738404	5	5	60	53	0	0	129	72	130	1	1	3	18	16.2	0	1
2	1	3	73	1	0.7	0.707824647	0.360243274	5	5	60	53	1	0	128	73	166	1	1	1	18	16.2	0	1
2	1	3	74	1	0.6	0.678893112	0.323087986	5	5	60	53	0	0	127	74	175	1	1	3	18	16.2	0	1
2	1	3	75	0	0.5	0.594354079	0.627779695	5	5	53	53	0	1	126	75	20	1	0	2	18	16.2	1	1
2	1	3	76	1	0.6	0.66429354	0.300381531	5	5	60	53	0	0	125	76	120	1	1	1	18	16.2	0	1
2	1	3	77	0	0.5	0.67575036	0.281971784	5	5	53	53	0	1	124	77	36	1	1	3	18	16.2	1	1
2	1	3	78	1	0.6	0.914956664	0.45849348	5	5	60	53	1	1	123	78	169	2	1	1	18	16.2	0	1
2	1	3	79	0	0.5	1.019445549	0.028268731	5	5	60	53	1	0	122	79	163	2	0	2	18	16.2	0	1
2	1	3	80	1	0.7	1.411309417	0.587450224	5	5	60	53	0	0	121	80	139	1	1	1	18	16.2	0	1
2	1	3	81	0	0.6	0.993026099	0.412160741	5	5	53	53	0	0	120	81	22	2	0	2	18	16.2	1	1
2	1	3	82	1	0.6	1.096125618	0.443707889	5	5	53	53	0	0	119	82	87	1	1	1	18	16.2	1	1
2	1	3	83	1	0.5	0.747713126	0.416561684	5	5	53	53	1	0	118	83	86	1	0	4	18	16.2	1	1
2	1	3	84	1	0.5	0.842105371	0.458954999	5	5	60	53	1	1	117	84	157	2	1	3	18	16.2	0	1
2	1	3	85	1	0.7	1.051057484	0.314761409	5	5	53	53	0	1	116	85	43	2	1	1	18	16.2	1	1
2	1	3	86	1	0.8	0.724115706	0.322910626	5	5	60	53	0	1	115	86	108	2	1	1	18	16.2	0	1
2	1	3	87	1	0.7	0.706126105	0.36917409	5	5	60	53	0	0	114	87	133	1	1	3	18	16.2	0	1
2	1	3	88	0	0.5	1.159263854	0.323432761	5	5	53	53	1	0	113	88	100	2	1	3	18	16.2	1	1
2	1	3	89	1	0.6	0.712819567	0.251192764	5	5	53	53	0	1	112	89	92	2	1	1	18	16.2	1	1
2	1	3	90	0	0.5	1.776542158	0.34496313	5	5	53	53	1	0	111	90	15	2	0	2	18	16.2	1	1
2	1	3	91	0	0.5	0.853813638	0.891267325	5	5	53	53	0	1	110	91	53	1	0	2	18	16.2	1	1
2	1	3	92	0	0.6	0.908564039	0.355136101	5	5	53	53	1	0	109	92	28	2	0	2	18	16.2	1	1
2	1	3	93	0	0.5	1.048450337	0.376962817	5	5	60	53	0	1	108	93	182	1	0	2	18	16.2	0	1
2	1	3	94	1	0.5	0.59174116	0.345415027	5	5	53	53	1	1	107	94	26	2	1	3	18	16.2	1	1
2	1	3	95	1	0.5	0.679801396	0.414536006	5	5	60	53	0	0	106	95	143	1	1	1	18	16.2	0	1
2	1	3	96	1	0.5	0.560523713	1.387052722	5	5	60	53	0	1	105	96	115	2	1	3	18	16.2	0	1
2	1	3	97	1	0.6	0.834622613	0.37331589	5	5	53	53	1	1	104	97	50	2	1	3	18	16.2	1	1
2	1	3	98	1	0.6	0.87256367	0.378690545	5	5	60	53	1	0	103	98	146	1	1	3	18	16.2	0	1
2	1	3	99	1	0.6	0.932080958	0.539417338	5	5	53	53	0	1	102	99	71	2	1	3	18	16.2	1	1
2	1	3	100	0	0.6	1.067953744	0.362226296	5	5	53	53	0	0	101	100	35	2	0	2	18	16.2	1	1
2	1	3	101	1	0.6	0.629228074	1.571099511	5	5	60	60	0	0	100	101	193	1	1	3	18	16.2	0	1
2	1	3	102	1	0.5	2.093501793	0.547131337	5	5	60	60	1	1	99	102	136	2	1	1	18	16.2	0	1
2	1	3	103	0	0.6	1.100297886	0.307991294	5	5	53	60	1	0	98	103	76	2	0	2	18	16.2	1	1
2	1	3	104	0	0.5	1.460615888	0.315537235	5	5	60	60	1	0	97	104	188	2	0	4	18	16.2	0	1
2	1	3	105	1	0.6	0.597158791	0.394976793	5	5	60	60	0	1	96	105	125	2	1	1	18	16.2	0	1
2	1	3	106	0	0.6	0.704025699	0.579288498	5	5	60	60	1	1	95	106	135	1	0	2	18	16.2	0	1
2	1	3	107	1	0.6	0.580583893	1.490890221	5	5	60	60	0	0	94	107	110	1	1	3	18	16.2	0	1
2	1	3	108	1	0.6	0.503528901	0.461854965	5	5	60	60	1	1	93	108	112	2	1	1	18	16.2	0	1
2	1	3	109	1	0.5	0.660732567	0.638529324	5	5	60	60	1	0	92	109	151	1	1	1	18	16.2	0	1
2	1	3	110	1	0.6	0.924568373	0.577016506	5	5	60	60	0	1	91	110	137	2	1	1	18	16.2	0	1
2	1	3	111	1	0.7	0.62674633	0.357874423	5	5	60	60	1	1	90	111	159	2	1	1	18	16.2	0	1
2	1	3	112	1	0.6	1.291638529	0.401209057	5	5	53	60	1	0	89	112	27	1	1	1	18	16.2	1	1
2	1	3	113	1	0.6	1.069531695	0.387365104	5	5	60	60	0	0	88	113	171	1	1	1	18	16.2	0	1
2	1	3	114	1	0.5	0.903565591	0.419332719	5	5	53	60	1	0	87	114	11	1	1	3	18	16.2	1	1
2	1	3	115	1	0.6	1.059165007	0.347223897	5	5	60	60	1	1	86	115	152	2	1	1	18	16.2	0	1
2	1	3	116	0	0.8	0.995251266	0.792526735	5	5	53	60	0	1	85	116	19	1	1	3	18	16.2	1	1
2	1	3	117	1	0.7	0.844341443	0.462891216	5	5	60	60	0	0	84	117	156	1	1	1	18	16.2	0	1
2	1	3	118	1	0.6	0.983729981	0.353469952	5	5	53	60	1	1	83	118	21	2	0	4	18	16.2	1	1
2	1	3	119	1	0.6	1.014518622	0.419274669	5	5	60	60	1	0	82	119	131	1	1	1	18	16.2	0	1
2	1	3	120	0	0.6	0.983089179	0.363291413	5	5	53	60	0	1	81	120	48	1	0	2	18	16.2	1	1
2	1	3	121	1	0.6	0.97162883	0.33386199	5	5	60	60	0	0	80	121	149	1	1	1	18	16.2	0	1
2	1	3	122	0	0.5	0.622795359	0.773941875	5	5	53	60	0	1	79	122	12	1	0	2	18	16.2	1	1
2	1	3	123	0	0.6	0.491564378	0.410927245	5	5	53	60	1	0	78	123	47	2	0	2	18	16.2	1	1
2	1	3	124	1	0.5	0.775940805	1.360973557	5	5	53	60	1	0	77	124	95	1	1	3	18	16.2	1	1
2	1	3	125	1	0.5	0.850606741	0.350441377	5	5	53	60	1	0	76	125	61	1	1	1	18	16.2	1	1
2	1	3	126	1	0.6	0.669163699	0.546717285	5	5	60	60	1	0	75	126	192	1	1	3	18	16.2	0	1
2	1	3	127	1	0.7	0.783030679	0.483458137	5	5	60	60	1	0	74	127	178	1	1	1	18	16.2	0	1
2	1	3	128	1	0.6	0.981226106	0.342535908	5	5	60	60	1	1	73	128	165	2	1	3	18	16.2	0	1
2	1	3	129	1	0.5	0.744834328	0.956906229	5	5	60	60	1	0	72	129	142	1	1	1	18	16.2	0	1
2	1	3	130	1	0.5	1.044587244	0.302550571	5	5	60	60	0	1	71	130	111	2	1	1	18	16.2	0	1
2	1	3	131	1	0.6	1.085240644	0.379896458	5	5	60	60	0	1	70	131	128	2	1	1	18	16.2	0	1
2	1	3	132	1	0.8	1.00403423	0.320063259	5	5	60	60	0	1	69	132	123	2	1	3	18	16.2	0	1
2	1	3	133	1	0.6	1.055822767	0.923163099	5	5	60	60	0	0	68	133	107	1	1	1	18	16.2	0	1
2	1	3	134	1	0.7	1.062835026	0.493363947	5	5	60	60	0	1	67	134	147	2	1	1	18	16.2	0	1
2	1	3	135	1	0.8	1.044133744	1.027520167	5	5	53	60	1	0	66	135	55	1	1	1	18	16.2	1	1
2	1	3	136	1	0.6	1.31251238	0.627291877	5	5	53	60	1	0	65	136	58	1	1	1	18	16.2	1	1
2	1	3	137	1	0.6	1.082844532	0.349320776	5	5	60	60	1	1	64	137	200	2	1	1	18	16.2	0	1
2	1	3	138	1	0.5	1.918285114	0.355452654	5	5	60	60	1	0	63	138	144	1	1	1	18	16.2	0	1
2	1	3	139	0	0.6	1.192977157	0.90241048	5	5	53	60	0	1	62	139	78	1	0	2	18	16.2	1	1
2	1	3	140	1	0.8	1.09159382	0.298844953	5	5	60	60	0	1	61	140	145	2	1	1	18	16.2	0	1
2	1	3	141	1	0.7	1.067243346	0.403301766	5	5	60	60	1	0	60	141	105	1	1	1	18	16.2	0	1
2	1	3	142	1	0.6	1.092128784	0.322599526	5	5	53	60	0	1	59	142	65	2	1	1	18	16.2	1	1
2	1	3	143	1	0.7	0.721893105	0.420396553	5	5	60	60	0	1	58	143	189	2	1	1	18	16.2	0	1
2	1	3	144	1	0.7	0.586514037	0.395113099	5	5	60	60	0	1	57	144	118	2	1	1	18	16.2	0	1
2	1	3	145	1	0.6	1.169152345	0.723506784	5	5	60	60	1	1	56	145	176	2	1	3	18	16.2	0	1
2	1	3	146	1	0.5	1.004261622	0.62569308	5	5	53	60	0	1	55	146	49	2	1	1	18	16.2	1	1
2	1	3	147	1	0.7	1.059922873	0.41771115	5	5	60	60	1	1	54	147	126	2	1	1	18	16.2	0	1
2	1	3	148	1	0.6	1.300601097	0.368928417	5	5	53	60	1	0	53	148	93	1	1	3	18	16.2	1	1
2	1	3	149	1	0.5	1.327521193	0.874076001	5	5	53	60	0	0	52	149	81	1	1	1	18	16.2	1	1
2	1	3	150	1	0.5	0.692699861	0.949531554	5	5	60	60	1	0	51	150	179	1	1	3	18	16.2	0	1
2	1	3	151	1	0.6	0.685467587	1.563981093	5	5	53	60	0	1	50	151	88	2	1	1	18	16.2	1	1
2	1	3	152	1	0.6	1.011946755	0.32629424	5	5	53	60	1	1	49	152	70	2	1	1	18	16.2	1	1
2	1	3	153	1	0.6	0.875451769	2.402660322	5	5	60	60	1	0	48	153	187	1	1	3	18	16.2	0	1
2	1	3	154	1	0.7	0.705311151	0.38230604	5	5	53	60	0	1	47	154	8	2	1	1	18	16.2	1	1
2	1	3	155	1	0.8	0.952610675	0.204928979	5	5	60	60	1	1	46	155	124	2	1	1	18	16.2	0	1
2	1	3	156	1	0.6	1.148348732	0.36237928	5	5	60	60	0	0	45	156	162	1	1	3	18	16.2	0	1
2	1	3	157	0	0.5	1.211113648	0.273589081	5	5	53	60	1	1	44	157	29	1	0	4	18	16.2	1	1
2	1	3	158	1	0.6	1.301484043	0.320640237	5	5	60	60	0	0	43	158	177	1	1	3	18	16.2	0	1
2	1	3	159	0	0.6	1.780216667	0.738216685	5	5	60	60	1	0	42	159	154	2	0	2	18	16.2	0	1
2	1	3	160	0	0.6	1.164600342	0.403613828	5	5	60	60	0	0	41	160	168	2	0	2	18	16.2	0	1
2	1	3	161	1	0.6	1.249596083	0.419640612	5	5	60	60	0	1	40	161	114	2	1	1	18	16.2	0	1
2	1	3	162	1	0.7	0.765177705	0.443350926	5	5	53	60	0	1	39	162	59	2	1	1	18	16.2	1	1
2	1	3	163	1	0.7	1.484532106	0.45243601	5	5	60	60	0	0	38	163	101	1	1	1	18	16.2	0	1
2	1	3	164	0	0.6	1.21953997	0.491583942	5	5	53	60	1	0	37	164	38	2	0	2	18	16.2	1	1
2	1	3	165	1	0.7	0.687542015	1.867802364	5	5	60	60	1	0	36	165	195	1	1	1	18	16.2	0	1
2	1	3	166	1	0.6	1.915875211	0.408958334	5	5	53	60	0	1	35	166	40	2	1	1	18	16.2	1	1
2	1	3	167	1	0.7	1.142695692	0.53915146	5	5	60	60	1	1	34	167	199	2	1	1	18	16.2	0	1
2	1	3	168	1	0.8	1.089870262	0.371477514	5	5	60	60	0	0	33	168	117	1	1	1	18	16.2	0	1
2	1	3	169	1	0.8	1.163795652	0.363219892	5	5	60	60	1	1	32	169	174	2	1	1	18	16.2	0	1
2	1	3	170	1	0.5	1.323603578	0.419401674	5	5	53	60	0	1	31	170	63	2	1	3	18	16.2	1	1
2	1	3	171	0	0.7	1.418029499	0.509820178	5	5	60	60	0	0	30	171	160	2	0	2	18	16.2	0	1
2	1	3	172	1	0.5	2.549636686	0.387797437	5	5	53	60	1	1	29	172	79	2	1	1	18	16.2	1	1
2	1	3	173	1	0.5	1.593822194	0.549029689	5	5	53	60	1	0	28	173	4	1	1	1	18	16.2	1	1
2	1	3	174	1	0.6	1.242704415	0.290757314	5	5	53	60	1	1	27	174	94	2	1	1	18	16.2	1	1
2	1	3	175	1	0.5	1.331062282	0.359320557	5	5	60	60	0	1	26	175	129	2	0	4	18	16.2	0	1
2	1	3	176	0	0.5	0.801818556	0.571363144	5	5	60	60	1	1	25	176	167	1	0	2	18	16.2	0	1
2	1	3	177	0	0.6	0.580262209	0.53928905	5	5	53	60	0	0	24	177	9	2	0	4	18	16.2	1	1
2	1	3	178	1	0.5	1.028819924	0.907766853	5	5	60	60	0	1	23	178	173	2	1	3	18	16.2	0	1
2	1	3	179	1	0.6	1.293026612	0.307939337	5	5	53	60	0	1	22	179	6	2	1	3	18	16.2	1	1
2	1	3	180	0	0.5	1.257923622	0.318409939	5	5	53	60	0	0	21	180	41	2	1	3	18	16.2	1	1
2	1	3	181	1	0.7	1.739252167	0.613266717	5	5	60	60	0	0	20	181	158	1	1	1	18	16.2	0	1
2	1	3	182	0	0.5	1.419922398	1.414418301	5	5	60	60	1	0	19	182	194	2	0	2	18	16.2	0	1
2	1	3	183	1	0.8	1.260133074	0.931337333	5	5	53	60	0	1	18	183	18	2	1	1	18	16.2	1	1
2	1	3	184	1	0.6	1.650171073	0.587406606	5	5	60	60	1	1	17	184	138	2	1	1	18	16.2	0	1
2	1	3	185	1	0.7	1.07078283	0.678852381	5	5	53	60	1	1	16	185	10	2	1	3	18	16.2	1	1
2	1	3	186	0	0.6	1.300060681	1.500901228	5	5	60	60	0	1	15	186	184	1	0	2	18	16.2	0	1
2	1	3	187	1	0.7	1.172035313	0.603162701	5	5	53	60	0	0	14	187	13	1	1	1	18	16.2	1	1
2	1	3	188	1	0.6	0.978008305	0.33037382	5	5	53	60	0	0	13	188	67	1	1	3	18	16.2	1	1
2	1	3	189	1	0.7	1.076937801	0.347447761	5	5	53	60	1	0	12	189	60	1	1	1	18	16.2	1	1
2	1	3	190	0	0.6	0.907950178	0.363404628	5	5	53	60	0	0	11	190	85	2	0	2	18	16.2	1	1
2	1	3	191	1	0.7	1.091977724	0.458628504	5	5	60	60	1	1	10	191	191	2	1	1	18	16.2	0	1
2	1	3	192	1	0.7	1.371097971	0.30734504	5	5	60	60	0	0	9	192	181	1	1	1	18	16.2	0	1
2	1	3	193	1	0.7	1.243940156	0.371677002	5	5	53	60	0	0	8	193	82	1	1	1	18	16.2	1	1
2	1	3	194	1	0.6	1.004119863	0.491166362	5	5	53	60	0	1	7	194	25	2	1	3	18	16.2	1	1
2	1	3	195	1	0.6	1.097686891	0.333590018	5	5	53	60	0	0	6	195	16	1	1	3	18	16.2	1	1
2	1	3	196	1	0.6	1.246516834	0.563907006	5	5	53	60	0	0	5	196	1	1	1	1	18	16.2	1	1
2	1	3	197	1	0.5	1.741055585	0.659925952	5	5	53	60	1	1	4	197	98	2	1	1	18	16.2	1	1
2	1	3	198	1	0.6	1.363646644	0.395207391	5	5	53	60	1	1	3	198	24	2	1	3	18	16.2	1	1
2	1	3	199	1	0.7	1.490012277	0.359000798	5	5	53	60	1	0	2	199	91	1	1	3	18	16.2	1	1
2	1	3	200	1	0.8	1.166571177	0.366905946	5	5	60	60	1	1	1	200	155	2	1	1	18	16.2	0	1
3	1	3	1	1	0.9	1.100184544	2.806678365	4	4	58	52	0	1	200	1	197	2	1	1	27	12.8	0	1
3	1	3	2	1	1	1.164701636	1.794894336	4	4	52	52	1	0	199	2	69	1	1	1	27	12.8	1	1
3	1	3	3	0	0.7	1.736943837	0.793219196	4	4	52	52	0	0	198	3	89	2	0	2	27	12.8	1	1
3	1	3	4	1	0.8	1.5091582	1.756823476	4	4	52	52	0	1	197	4	33	2	1	1	27	12.8	1	1
3	1	3	5	1	1	1.365090738	0.797988678	4	4	52	52	0	1	196	5	66	2	1	1	27	12.8	1	1
3	1	3	6	0	0.8	1.24445727	1.902682821	4	4	58	52	1	1	195	6	148	1	1	3	27	12.8	0	1
3	1	3	7	1	1	1.09319758	0.877457906	4	4	52	52	1	1	194	7	97	2	1	1	27	12.8	1	1
3	1	3	8	1	0.7	1.166247203	5.12712716	4	4	52	52	1	0	193	8	75	1	1	1	27	12.8	1	1
3	1	3	9	1	1	1.236915453	1.167617559	4	4	58	52	0	1	192	9	172	2	1	1	27	12.8	0	1
3	1	3	10	1	1	1.346485879	0.99867028	4	4	52	52	1	0	191	10	17	1	1	1	27	12.8	1	1
3	1	3	11	0	1	1.227728645	0.772760876	4	4	58	52	0	1	190	11	164	1	0	2	27	12.8	0	1
3	1	3	12	1	1	1.197195753	0.854676584	4	4	58	52	1	1	189	12	141	2	1	1	27	12.8	0	1
3	1	3	13	0	0.8	1.044151556	0.782950266	4	4	52	52	0	0	188	13	39	2	0	2	27	12.8	1	1
3	1	3	14	1	0.8	1.665578334	2.262322764	4	4	58	52	1	1	187	14	150	2	1	3	27	12.8	0	1
3	1	3	15	1	1	1.056366958	0.635740354	4	4	52	52	0	0	186	15	54	1	1	1	27	12.8	1	1
3	1	3	16	1	1	1.085580713	0.867679362	4	4	52	52	0	1	185	16	14	2	1	1	27	12.8	1	1
3	1	3	17	0	0.8	1.928833441	0.862542332	4	4	52	52	0	0	184	17	42	2	0	2	27	12.8	1	1
3	1	3	18	1	0.8	1.19173447	4.531721333	4	4	58	52	1	0	183	18	190	1	1	1	27	12.8	0	1
3	1	3	19	1	1	1.199506887	0.757321239	4	4	52	52	1	0	182	19	62	1	1	1	27	12.8	1	1
3	1	3	20	1	0.8	1.174926626	0.924225829	4	4	58	52	1	1	181	20	127	2	1	1	27	12.8	0	1
3	1	3	21	1	0.7	1.33635486	1.074292107	4	4	52	52	1	1	180	21	57	2	1	1	27	12.8	1	1
3	1	3	22	0	1	1.30457307	2.878148745	4	4	52	52	0	1	179	22	90	1	0	2	27	12.8	1	1
3	1	3	23	0	1	1.133780989	0.583345654	4	4	52	52	0	0	178	23	77	2	0	2	27	12.8	1	1
3	1	3	24	1	0.9	1.189468558	4.790573868	4	4	58	52	1	1	177	24	106	2	1	1	27	12.8	0	1
3	1	3	25	0	0.8	0.958669722	1.574694775	4	4	52	52	1	0	176	25	80	2	0	4	27	12.8	1	1
3	1	3	26	0	1	1.20803076	0.289179522	4	4	52	52	1	0	175	26	51	2	0	2	27	12.8	1	1
3	1	3	27	1	1	0.979507458	0.91380648	4	4	58	52	0	1	174	27	102	2	1	1	27	12.8	0	1
3	1	3	28	1	1	1.032926228	1.634267911	4	4	58	52	0	0	173	28	161	1	1	1	27	12.8	0	1
3	1	3	29	1	0.8	1.317036392	1.437525117	4	4	52	52	1	1	172	29	2	2	1	1	27	12.8	1	1
3	1	3	30	0	0.8	1.083444694	2.366997343	4	4	58	52	0	0	171	30	122	2	0	2	27	12.8	0	1
3	1	3	31	0	0.8	1.155256324	1.081905124	4	4	52	52	1	1	170	31	37	1	0	2	27	12.8	1	1
3	1	3	32	0	1	1.062159227	0.678375432	4	4	52	52	1	0	169	32	99	2	0	2	27	12.8	1	1
3	1	3	33	1	0.8	1.130739246	1.041140506	4	4	52	52	1	1	168	33	34	2	0	4	27	12.8	1	1
3	1	3	34	1	1	1.030333498	0.667423681	4	4	58	52	1	1	167	34	198	2	1	1	27	12.8	0	1
3	1	3	35	1	0.8	1.015844807	1.098305008	4	4	52	52	0	0	166	35	74	1	1	1	27	12.8	1	1
3	1	3	36	1	1	0.981427952	0.760431296	4	4	58	52	1	0	165	36	196	1	1	1	27	12.8	0	1
3	1	3	37	0	0.9	1.048246235	1.833757383	4	4	52	52	1	1	164	37	44	1	0	2	27	12.8	1	1
3	1	3	38	1	1	1.735316485	0.538873471	4	4	52	52	0	1	163	38	52	2	1	1	27	12.8	1	1
3	1	3	39	0	0.8	0.997305697	1.294579546	4	4	52	52	0	0	162	39	3	2	0	4	27	12.8	1	1
3	1	3	40	0	0.8	1.037517387	1.214794084	4	4	52	52	1	1	161	40	7	1	1	3	27	12.8	1	1
3	1	3	41	1	1	1.653272809	1.742433888	4	4	52	52	0	0	160	41	5	1	1	1	27	12.8	1	1
3	1	3	42	0	0.9	0.917369495	1.015995451	4	4	58	52	0	1	159	42	103	1	0	2	27	12.8	0	1
3	1	3	43	1	1	0.802086981	0.552684152	4	4	58	52	1	1	158	43	109	2	1	1	27	12.8	0	1
3	1	3	44	1	1	0.934783186	1.117532391	4	4	58	52	1	0	157	44	170	1	1	1	27	12.8	0	1
3	1	3	45	1	0.9	1.063601201	0.827201792	4	4	58	52	1	0	156	45	183	1	1	1	27	12.8	0	1
3	1	3	46	0	0.8	1.205275744	1.356490437	4	4	52	52	0	0	155	46	46	2	1	3	27	12.8	1	1
3	1	3	47	0	1	0.673457456	0.7863246	4	4	52	52	0	0	154	47	96	2	0	2	27	12.8	1	1
3	1	3	48	0	0.8	0.96527695	0.830765032	4	4	58	52	1	1	153	48	185	1	0	2	27	12.8	0	1
3	1	3	49	1	0.9	0.719566388	1.123994652	4	4	58	52	1	0	152	49	186	1	1	1	27	12.8	0	1
3	1	3	50	1	0.9	0.69833631	1.972255479	4	4	52	52	1	1	151	50	84	2	1	1	27	12.8	1	1
3	1	3	51	0	0.8	0.997245721	0.882724188	4	4	52	52	0	0	150	51	64	2	0	2	27	12.8	1	1
3	1	3	52	0	0.8	1.125535184	0.862474017	4	4	52	52	1	1	149	52	83	1	1	3	27	12.8	1	1
3	1	3	53	1	1	0.867627181	0.590917619	4	4	58	52	1	0	148	53	140	1	1	1	27	12.8	0	1
3	1	3	54	1	1	0.869372879	0.50461826	4	4	58	52	0	1	147	54	119	2	1	1	27	12.8	0	1
3	1	3	55	1	0.8	0.94150812	1.014935459	4	4	52	52	0	1	146	55	32	2	1	3	27	12.8	1	1
3	1	3	56	1	0.7	1.221637461	1.847130598	4	4	52	52	1	1	145	56	56	2	1	1	27	12.8	1	1
3	1	3	57	1	0.9	0.941056861	2.19940416	4	4	52	52	1	0	144	57	30	1	1	1	27	12.8	1	1
3	1	3	58	1	0.8	1.02853937	2.063058119	4	4	58	52	0	0	143	58	113	1	1	1	27	12.8	0	1
3	1	3	59	1	0.9	0.995979825	1.718997007	4	4	58	52	1	1	142	59	153	2	1	1	27	12.8	0	1
3	1	3	60	1	0.8	0.995137284	1.342966803	4	4	52	52	0	1	141	60	73	2	1	1	27	12.8	1	1
3	1	3	61	0	0.9	0.956582773	1.108312868	4	4	58	52	0	1	140	61	104	1	0	2	27	12.8	0	1
3	1	3	62	1	0.7	1.344206175	1.143011961	4	4	52	52	0	0	139	62	23	1	1	1	27	12.8	1	1
3	1	3	63	1	1	1.198964864	2.534645371	4	4	58	52	1	0	138	63	132	1	1	1	27	12.8	0	1
3	1	3	64	1	0.8	1.420121785	1.175650404	4	4	52	52	0	1	137	64	31	2	1	3	27	12.8	1	1
3	1	3	65	1	0.7	1.451319217	0.458552401	4	4	52	52	1	0	136	65	72	1	1	1	27	12.8	1	1
3	1	3	66	1	1	1.086511133	0.662362983	4	4	52	52	1	1	135	66	45	2	1	1	27	12.8	1	1
3	1	3	67	1	0.8	1.173243789	2.420199946	4	4	58	52	0	0	134	67	116	1	1	3	27	12.8	0	1
3	1	3	68	0	0.9	1.333881119	1.011523601	4	4	58	52	1	0	133	68	121	2	0	2	27	12.8	0	1
3	1	3	69	1	1	0.940885274	0.698303276	4	4	52	52	0	1	132	69	68	2	1	1	27	12.8	1	1
3	1	3	70	1	0.8	1.074597853	1.061071878	4	4	58	52	1	0	131	70	180	1	1	1	27	12.8	0	1
3	1	3	71	1	0.9	0.821512892	0.878744008	4	4	58	52	1	0	130	71	134	1	1	1	27	12.8	0	1
3	1	3	72	1	1	0.773124352	0.577650244	4	4	58	52	0	0	129	72	130	1	1	1	27	12.8	0	1
3	1	3	73	0	0.8	1.189386132	0.926482762	4	4	58	52	1	0	128	73	166	2	0	2	27	12.8	0	1
3	1	3	74	1	1	0.764376614	0.714603735	4	4	58	52	0	0	127	74	175	1	1	1	27	12.8	0	1
3	1	3	75	1	0.8	1.088108337	0.825404777	4	4	52	52	0	1	126	75	20	2	1	1	27	12.8	1	1
3	1	3	76	0	0.8	1.186354972	1.166717929	4	4	58	52	0	0	125	76	120	2	1	3	27	12.8	0	1
3	1	3	77	1	1	0.973526924	0.801193669	4	4	52	52	0	1	124	77	36	2	1	1	27	12.8	1	1
3	1	3	78	1	1	0.977260468	0.769014503	4	4	58	52	1	1	123	78	169	2	1	1	27	12.8	0	1
3	1	3	79	1	1	0.98136092	0.996518865	4	4	58	52	1	0	122	79	163	1	1	1	27	12.8	0	1
3	1	3	80	0	0.8	1.062098931	0.827064522	4	4	58	52	0	0	121	80	139	2	0	2	27	12.8	0	1
3	1	3	81	0	0.7	1.437570435	0.717080363	4	4	52	52	0	0	120	81	22	2	0	2	27	12.8	1	1
3	1	3	82	1	0.9	1.344113165	0.810704729	4	4	52	52	0	0	119	82	87	1	1	1	27	12.8	1	1
3	1	3	83	0	0.8	1.093466987	0.743325821	4	4	52	52	1	0	118	83	86	2	0	2	27	12.8	1	1
3	1	3	84	1	1	1.097605605	0.604659666	4	4	58	52	1	1	117	84	157	2	1	1	27	12.8	0	1
3	1	3	85	0	0.7	0.947064657	0.527971112	4	4	52	52	0	1	116	85	43	1	1	3	27	12.8	1	1
3	1	3	86	1	0.8	0.997490754	1.126665638	4	4	58	52	0	1	115	86	108	2	1	1	27	12.8	0	1
3	1	3	87	0	0.9	1.072314942	0.840854357	4	4	58	52	0	0	114	87	133	2	0	2	27	12.8	0	1
3	1	3	88	1	0.7	0.7091031	0.626975618	4	4	52	52	1	0	113	88	100	1	1	1	27	12.8	1	1
3	1	3	89	0	1	1.309619336	1.558895287	4	4	52	52	0	1	112	89	92	1	0	2	27	12.8	1	1
3	1	3	90	1	0.7	1.289532735	0.775964905	4	4	52	52	1	0	111	90	15	1	1	1	27	12.8	1	1
3	1	3	91	1	1	1.405829056	0.697716672	4	4	52	52	0	1	110	91	53	2	1	1	27	12.8	1	1
3	1	3	92	1	0.8	1.264194283	0.857477464	4	4	52	52	1	0	109	92	28	1	1	1	27	12.8	1	1
3	1	3	93	1	0.8	0.933633071	1.750278468	4	4	58	52	0	1	108	93	182	2	1	3	27	12.8	0	1
3	1	3	94	1	0.7	0.93278604	0.970218884	4	4	52	52	1	1	107	94	26	2	1	3	27	12.8	1	1
3	1	3	95	0	0.8	0.782261448	0.815271513	4	4	58	52	0	0	106	95	143	2	0	2	27	12.8	0	1
3	1	3	96	1	0.7	0.95338163	0.744221602	4	4	58	52	0	1	105	96	115	2	1	1	27	12.8	0	1
3	1	3	97	1	1	0.88103824	0.717463307	4	4	52	52	1	1	104	97	50	2	1	1	27	12.8	1	1
3	1	3	98	1	0.8	1.021334634	0.655069085	4	4	58	52	1	0	103	98	146	1	1	1	27	12.8	0	1
3	1	3	99	1	0.7	1.020328844	0.942909265	4	4	52	52	0	1	102	99	71	2	1	1	27	12.8	1	1
3	1	3	100	1	0.8	0.863437567	1.456159161	4	4	52	52	0	0	101	100	35	1	1	1	27	12.8	1	1
3	1	3	101	1	0.8	0.861308283	0.887914138	4	4	58	58	0	0	100	101	193	1	1	3	27	12.8	0	1
3	1	3	102	1	1	0.779735749	0.271257484	4	4	58	58	1	1	99	102	136	2	1	1	27	12.8	0	1
3	1	3	103	0	0.8	0.732952111	0.982617419	4	4	52	58	1	0	98	103	76	2	0	2	27	12.8	1	1
3	1	3	104	1	1	0.673534108	2.496935325	4	4	58	58	1	0	97	104	188	1	1	1	27	12.8	0	1
3	1	3	105	1	1	0.773405947	0.55039611	4	4	58	58	0	1	96	105	125	2	1	1	27	12.8	0	1
3	1	3	106	1	0.8	0.932787964	0.776727586	4	4	58	58	1	1	95	106	135	2	1	1	27	12.8	0	1
3	1	3	107	1	0.8	0.950135265	0.790946549	4	4	58	58	0	0	94	107	110	1	1	1	27	12.8	0	1
3	1	3	108	0	0.7	1.093357621	0.718085831	4	4	58	58	1	1	93	108	112	1	1	3	27	12.8	0	1
3	1	3	109	1	1	0.903631939	0.696382141	4	4	58	58	1	0	92	109	151	1	1	1	27	12.8	0	1
3	1	3	110	0	0.8	1.09310457	1.246872223	4	4	58	58	0	1	91	110	137	1	0	2	27	12.8	0	1
3	1	3	111	0	0.7	0.972655839	0.704449624	4	4	58	58	1	1	90	111	159	1	0	2	27	12.8	0	1
3	1	3	112	0	0.8	1.009772867	1.091558585	4	4	52	58	1	0	89	112	27	2	0	2	27	12.8	1	1
3	1	3	113	1	1	0.797259448	0.566992917	4	4	58	58	0	0	88	113	171	1	1	1	27	12.8	0	1
3	1	3	114	0	0.7	1.013516995	0.935099323	4	4	52	58	1	0	87	114	11	2	1	3	27	12.8	1	1
3	1	3	115	1	0.8	0.853006031	0.679000522	4	4	58	58	1	1	86	115	152	2	1	1	27	12.8	0	1
3	1	3	116	0	0.8	0.80641675	0.895275708	4	4	52	58	0	1	85	116	19	1	0	2	27	12.8	1	1
3	1	3	117	0	0.8	0.749767331	0.789470258	4	4	58	58	0	0	84	117	156	2	1	3	27	12.8	0	1
3	1	3	118	1	0.7	0.965532566	0.69475511	4	4	52	58	1	1	83	118	21	2	1	1	27	12.8	1	1
3	1	3	119	1	0.8	0.953951556	0.895866161	4	4	58	58	1	0	82	119	131	1	1	1	27	12.8	0	1
3	1	3	120	1	0.7	0.820859257	0.614139615	4	4	52	58	0	1	81	120	48	2	1	3	27	12.8	1	1
3	1	3	121	1	0.7	0.733057308	0.767933664	4	4	58	58	0	0	80	121	149	1	1	3	27	12.8	0	1
3	1	3	122	0	1	1.093356979	0.704217741	4	4	52	58	0	1	79	122	12	1	0	2	27	12.8	1	1
3	1	3	123	0	0.7	0.69416113	0.833144801	4	4	52	58	1	0	78	123	47	2	0	2	27	12.8	1	1
3	1	3	124	0	0.6	0.829451123	0.782942569	4	4	52	58	1	0	77	124	95	2	1	3	27	12.8	1	1
3	1	3	125	1	0.7	0.901084431	0.838949899	4	4	52	58	1	0	76	125	61	1	1	1	27	12.8	1	1
3	1	3	126	1	1	0.981235197	1.084982147	4	4	58	58	1	0	75	126	192	1	1	1	27	12.8	0	1
3	1	3	127	0	0.7	0.821544323	0.906050099	4	4	58	58	1	0	74	127	178	2	1	3	27	12.8	0	1
3	1	3	128	1	0.7	0.941578679	0.708836161	4	4	58	58	1	1	73	128	165	2	1	1	27	12.8	0	1
3	1	3	129	1	0.7	0.796750139	0.511225168	4	4	58	58	1	0	72	129	142	1	1	1	27	12.8	0	1
3	1	3	130	1	0.8	0.957182847	0.665099718	4	4	58	58	0	1	71	130	111	2	1	3	27	12.8	0	1
3	1	3	131	1	0.7	0.997170351	1.047269856	4	4	58	58	0	1	70	131	128	2	1	1	27	12.8	0	1
3	1	3	132	1	0.7	0.726143468	0.685948038	4	4	58	58	0	1	69	132	123	2	1	1	27	12.8	0	1
3	1	3	133	0	0.6	0.717489382	1.263707328	4	4	58	58	0	0	68	133	107	2	0	2	27	12.8	0	1
3	1	3	134	0	0.7	1.072444193	0.823461192	4	4	58	58	0	1	67	134	147	1	0	2	27	12.8	0	1
3	1	3	135	0	0.6	0.801228724	0.926701174	4	4	52	58	1	0	66	135	55	2	0	2	27	12.8	1	1
3	1	3	136	0	0.7	1.123805521	0.586996773	4	4	52	58	1	0	65	136	58	2	0	2	27	12.8	1	1
3	1	3	137	1	0.6	1.141360972	1.570416642	4	4	58	58	1	1	64	137	200	2	1	1	27	12.8	0	1
3	1	3	138	1	1	0.626151999	0.358491752	4	4	58	58	1	0	63	138	144	1	1	1	27	12.8	0	1
3	1	3	139	0	0.7	0.997564842	0.669840334	4	4	52	58	0	1	62	139	78	1	0	4	27	12.8	1	1
3	1	3	140	1	1	0.74826891	0.310828689	4	4	58	58	0	1	61	140	145	2	1	1	27	12.8	0	1
3	1	3	141	1	1	0.621313562	0.527778678	4	4	58	58	1	0	60	141	105	1	1	1	27	12.8	0	1
3	1	3	142	1	0.8	0.924935045	0.706974681	4	4	52	58	0	1	59	142	65	2	1	1	27	12.8	1	1
3	1	3	143	1	0.6	1.501297904	0.686570563	4	4	58	58	0	1	58	143	189	2	1	1	27	12.8	0	1
3	1	3	144	0	0.7	0.997748295	0.740991594	4	4	58	58	0	1	57	144	118	1	0	2	27	12.8	0	1
3	1	3	145	1	0.7	0.66636401	0.880045825	4	4	58	58	1	1	56	145	176	2	1	1	27	12.8	0	1
3	1	3	146	1	0.8	0.789644827	0.651140862	4	4	52	58	0	1	55	146	49	2	1	1	27	12.8	1	1
3	1	3	147	0	0.7	0.780872394	1.878456639	4	4	58	58	1	1	54	147	126	1	0	2	27	12.8	0	1
3	1	3	148	1	0.6	0.798656521	0.902926571	4	4	52	58	1	0	53	148	93	1	1	1	27	12.8	1	1
3	1	3	149	1	0.6	0.749627175	0.812209885	4	4	52	58	0	0	52	149	81	1	1	1	27	12.8	1	1
3	1	3	150	1	0.7	0.593613302	0.779513712	4	4	58	58	1	0	51	150	179	1	1	1	27	12.8	0	1
3	1	3	151	0	0.7	0.778887756	0.965918622	4	4	52	58	0	1	50	151	88	1	0	2	27	12.8	1	1
3	1	3	152	0	1	0.618038012	0.413242808	4	4	52	58	1	1	49	152	70	1	0	2	27	12.8	1	1
3	1	3	153	1	0.7	0.698159912	0.345461712	4	4	58	58	1	0	48	153	187	1	1	1	27	12.8	0	1
3	1	3	154	1	0.8	0.801582162	0.338805093	4	4	52	58	0	1	47	154	8	2	1	1	27	12.8	1	1
3	1	3	155	0	0.8	0.557843634	0.599100242	4	4	58	58	1	1	46	155	124	1	0	2	27	12.8	0	1
3	1	3	156	1	0.6	0.741716205	0.664312341	4	4	58	58	0	0	45	156	162	1	0	4	27	12.8	0	1
3	1	3	157	1	0.7	0.829712192	0.387590047	4	4	52	58	1	1	44	157	29	2	1	3	27	12.8	1	1
3	1	3	158	1	1	0.554360575	0.314561271	4	4	58	58	0	0	43	158	177	1	1	1	27	12.8	0	1
3	1	3	159	0	1	0.584882883	0.226356172	4	4	58	58	1	0	42	159	154	2	0	2	27	12.8	0	1
3	1	3	160	1	0.7	0.674014232	0.63965639	4	4	58	58	0	0	41	160	168	1	1	1	27	12.8	0	1
3	1	3	161	1	0.7	0.777934565	0.670929191	4	4	58	58	0	1	40	161	114	2	1	3	27	12.8	0	1
3	1	3	162	0	0.6	0.839679001	0.459519062	4	4	52	58	0	1	39	162	59	1	0	2	27	12.8	1	1
3	1	3	163	1	0.6	0.594098877	1.191009859	4	4	58	58	0	0	38	163	101	1	1	3	27	12.8	0	1
3	1	3	164	0	0.7	0.586190153	0.479874751	4	4	52	58	1	0	37	164	38	2	0	2	27	12.8	1	1
3	1	3	165	1	1	0.835586887	0.652240624	4	4	58	58	1	0	36	165	195	1	1	1	27	12.8	0	1
3	1	3	166	1	0.7	0.821226486	0.899091358	4	4	52	58	0	1	35	166	40	2	1	1	27	12.8	1	1
3	1	3	167	0	0.6	0.654403263	0.386896322	4	4	58	58	1	1	34	167	199	1	0	2	27	12.8	0	1
3	1	3	168	1	0.6	0.624280256	0.575594084	4	4	58	58	0	0	33	168	117	1	1	1	27	12.8	0	1
3	1	3	169	0	0.7	0.544806538	0.497750284	4	4	58	58	1	1	32	169	174	1	0	2	27	12.8	0	1
3	1	3	170	0	1	0.724902909	0.246971647	4	4	52	58	0	1	31	170	63	1	0	2	27	12.8	1	1
3	1	3	171	1	0.8	0.837301476	0.79108029	4	4	58	58	0	0	30	171	160	1	1	1	27	12.8	0	1
3	1	3	172	1	0.7	0.749827627	0.502270242	4	4	52	58	1	1	29	172	79	2	1	1	27	12.8	1	1
3	1	3	173	0	0.8	0.86502515	0.370537812	4	4	52	58	1	0	28	173	4	2	1	3	27	12.8	1	1
3	1	3	174	1	0.6	0.697992494	0.354185396	4	4	52	58	1	1	27	174	94	2	1	3	27	12.8	1	1
3	1	3	175	1	1	0.545877113	0.283082886	4	4	58	58	0	1	26	175	129	2	1	1	27	12.8	0	1
3	1	3	176	1	1	0.682193968	0.279847105	4	4	58	58	1	1	25	176	167	2	1	1	27	12.8	0	1
3	1	3	177	0	0.7	0.690218153	0.478917391	4	4	52	58	0	0	24	177	9	2	0	2	27	12.8	1	1
3	1	3	178	1	0.7	0.682077224	0.486013722	4	4	58	58	0	1	23	178	173	2	1	1	27	12.8	0	1
3	1	3	179	0	0.7	0.733387012	0.934788863	4	4	52	58	0	1	22	179	6	1	0	2	27	12.8	1	1
3	1	3	180	1	0.6	0.6963196	1.403487036	4	4	52	58	0	0	21	180	41	1	1	1	27	12.8	1	1
3	1	3	181	0	0.8	0.832192669	0.683597134	4	4	58	58	0	0	20	181	158	2	0	2	27	12.8	0	1
3	1	3	182	1	1	0.602384773	0.318266591	4	4	58	58	1	0	19	182	194	1	1	1	27	12.8	0	1
3	1	3	183	0	0.7	0.602231146	0.440175898	4	4	52	58	0	1	18	183	18	1	1	3	27	12.8	1	1
3	1	3	184	0	0.7	0.681987743	3.48571994	4	4	58	58	1	1	17	184	138	1	0	2	27	12.8	0	1
3	1	3	185	0	0.6	0.780132485	1.140603647	4	4	52	58	1	1	16	185	10	1	0	2	27	12.8	1	1
3	1	3	186	1	0.8	0.731942472	0.428074032	4	4	58	58	0	1	15	186	184	2	1	1	27	12.8	0	1
3	1	3	187	1	0.8	0.602133646	0.498711172	4	4	52	58	0	0	14	187	13	1	1	1	27	12.8	1	1
3	1	3	188	1	0.8	0.586219338	1.306444717	4	4	52	58	0	0	13	188	67	1	1	3	27	12.8	1	1
3	1	3	189	1	0.8	0.585421699	1.202554307	4	4	52	58	1	0	12	189	60	1	1	1	27	12.8	1	1
3	1	3	190	0	1	0.554054925	0.281459062	4	4	52	58	0	0	11	190	85	2	0	2	27	12.8	1	1
3	1	3	191	0	0.8	0.870052172	0.855305523	4	4	58	58	1	1	10	191	191	1	0	2	27	12.8	0	1
3	1	3	192	0	0.8	0.666406025	1.114526569	4	4	58	58	0	0	9	192	181	2	0	2	27	12.8	0	1
3	1	3	193	1	1	0.724451009	0.27849333	4	4	52	58	0	0	8	193	82	1	1	1	27	12.8	1	1
3	1	3	194	0	0.7	0.718003502	0.543556678	4	4	52	58	0	1	7	194	25	1	0	2	27	12.8	1	1
3	1	3	195	0	0.6	0.648448708	0.470966651	4	4	52	58	0	0	6	195	16	2	1	3	27	12.8	1	1
3	1	3	196	1	0.7	0.717766487	0.31227836	4	4	52	58	0	0	5	196	1	1	1	3	27	12.8	1	1
3	1	3	197	0	0.8	0.861726507	1.486162218	4	4	52	58	1	1	4	197	98	1	1	3	27	12.8	1	1
3	1	3	198	0	0.7	0.610290611	0.551027294	4	4	52	58	1	1	3	198	24	1	0	2	27	12.8	1	1
3	1	3	199	1	0.8	0.650056175	0.680392463	4	4	52	58	1	0	2	199	91	1	1	1	27	12.8	1	1
3	1	3	200	1	0.8	0.529991671	0.86538683	4	4	58	58	1	1	1	200	155	2	1	1	27	12.8	0	1
4	1	3	1	0	0.6	1.084182893	1.239151477	3	3	56	52	0	1	200	1	197	1	0	2	23	13.2	0	1
4	1	3	2	1	0.8	1.343336038	0.976184856	3	3	52	52	1	0	199	2	69	1	1	3	23	13.2	1	1
4	1	3	3	1	0.6	1.707148103	1.444297907	3	3	52	52	0	0	198	3	89	1	1	1	23	13.2	1	1
4	1	3	4	0	0.7	1.029473779	0.92199821	3	3	52	52	0	1	197	4	33	1	0	2	23	13.2	1	1
4	1	3	5	0	0.6	1.005235592	0.937897745	3	3	52	52	0	1	196	5	66	1	0	2	23	13.2	1	1
4	1	3	6	0	0.6	2.281886789	1.592967039	3	3	56	52	1	1	195	6	148	1	0	2	23	13.2	0	1
4	1	3	7	1	0.7	1.161667346	2.571547425	3	3	52	52	1	1	194	7	97	2	1	1	23	13.2	1	1
4	1	3	8	0	0.6	1.404258008	1.031874441	3	3	52	52	1	0	193	8	75	2	0	2	23	13.2	1	1
4	1	3	9	0	0.7	1.269291733	1.119845793	3	3	56	52	0	1	192	9	172	1	0	2	23	13.2	0	1
4	1	3	10	1	0.9	1.388446674	0.41223616	3	3	52	52	1	0	191	10	17	1	1	1	23	13.2	1	1
4	1	3	11	1	0.5	2.039859328	1.099449307	3	3	56	52	0	1	190	11	164	2	1	1	23	13.2	0	1
4	1	3	12	0	0.6	1.59658038	0.463363044	3	3	56	52	1	1	189	12	141	1	0	4	23	13.2	0	1
4	1	3	13	1	0.8	1.031072296	1.270819047	3	3	52	52	0	0	188	13	39	1	1	1	23	13.2	1	1
4	1	3	14	0	0.6	1.140788482	0.47468352	3	3	56	52	1	1	187	14	150	1	1	3	23	13.2	0	1
4	1	3	15	1	0.7	1.37282425	0.730536998	3	3	52	52	0	0	186	15	54	1	1	1	23	13.2	1	1
4	1	3	16	1	0.8	1.364832948	0.661630782	3	3	52	52	0	1	185	16	14	2	1	1	23	13.2	1	1
4	1	3	17	1	0.9	1.175259871	0.559251609	3	3	52	52	0	0	184	17	42	1	1	1	23	13.2	1	1
4	1	3	18	1	0.6	2.035830321	1.336703989	3	3	56	52	1	0	183	18	190	1	1	1	23	13.2	0	1
4	1	3	19	1	0.8	1.861111521	1.264354098	3	3	52	52	1	0	182	19	62	1	1	1	23	13.2	1	1
4	1	3	20	0	0.7	1.253398292	0.89018567	3	3	56	52	1	1	181	20	127	1	0	2	23	13.2	0	1
4	1	3	21	0	0.7	1.439652457	0.927067985	3	3	52	52	1	1	180	21	57	1	1	3	23	13.2	1	1
4	1	3	22	0	0.5	2.484305732	0.511200844	3	3	52	52	0	1	179	22	90	1	0	2	23	13.2	1	1
4	1	3	23	0	0.6	1.538865707	0.814903669	3	3	52	52	0	0	178	23	77	2	1	3	23	13.2	1	1
4	1	3	24	1	0.6	1.241487031	0.687034501	3	3	56	52	1	1	177	24	106	2	1	1	23	13.2	0	1
4	1	3	25	1	0.7	1.128907049	1.256075102	3	3	52	52	1	0	176	25	80	1	1	3	23	13.2	1	1
4	1	3	26	1	0.8	1.300571861	0.458296155	3	3	52	52	1	0	175	26	51	1	1	1	23	13.2	1	1
4	1	3	27	1	0.8	1.732923868	0.699259756	3	3	56	52	0	1	174	27	102	2	1	1	23	13.2	0	1
4	1	3	28	1	0.7	1.453174102	0.399274189	3	3	56	52	0	0	173	28	161	1	1	1	23	13.2	0	1
4	1	3	29	0	0.6	2.443475235	0.335866884	3	3	52	52	1	1	172	29	2	1	0	2	23	13.2	1	1
4	1	3	30	1	0.8	1.910046859	0.582114186	3	3	56	52	0	0	171	30	122	1	1	1	23	13.2	0	1
4	1	3	31	1	0.5	1.965742217	0.398108015	3	3	52	52	1	1	170	31	37	2	1	3	23	13.2	1	1
4	1	3	32	1	0.6	1.147448114	0.352872937	3	3	52	52	1	0	169	32	99	1	1	3	23	13.2	1	1
4	1	3	33	1	0.5	2.94863321	0.839624233	3	3	52	52	1	1	168	33	34	2	1	1	23	13.2	1	1
4	1	3	34	0	0.6	1.381277402	0.358045345	3	3	56	52	1	1	167	34	198	1	0	4	23	13.2	0	1
4	1	3	35	1	0.8	1.430002662	0.358496932	3	3	52	52	0	0	166	35	74	1	1	1	23	13.2	1	1
4	1	3	36	1	0.9	1.736579225	0.311125793	3	3	56	52	1	0	165	36	196	1	1	1	23	13.2	0	1
4	1	3	37	1	0.5	1.485426362	0.624321897	3	3	52	52	1	1	164	37	44	2	1	3	23	13.2	1	1
4	1	3	38	1	0.7	1.752935158	0.703539894	3	3	52	52	0	1	163	38	52	2	1	1	23	13.2	1	1
4	1	3	39	1	0.6	1.813752891	1.030770168	3	3	52	52	0	0	162	39	3	1	1	3	23	13.2	1	1
4	1	3	40	0	0.6	1.397765476	1.551057606	3	3	52	52	1	1	161	40	7	1	0	2	23	13.2	1	1
4	1	3	41	1	0.8	1.220862827	0.335818775	3	3	52	52	0	0	160	41	5	1	1	1	23	13.2	1	1
4	1	3	42	1	0.7	1.212874091	1.150976782	3	3	56	52	0	1	159	42	103	2	1	3	23	13.2	0	1
4	1	3	43	0	0.6	1.324918775	1.397571755	3	3	56	52	1	1	158	43	109	1	1	3	23	13.2	0	1
4	1	3	44	1	0.5	1.375500098	1.017695942	3	3	56	52	1	0	157	44	170	1	1	3	23	13.2	0	1
4	1	3	45	1	0.9	1.365291591	0.587124305	3	3	56	52	1	0	156	45	183	1	1	1	23	13.2	0	1
4	1	3	46	1	0.6	1.429269153	0.44136323	3	3	52	52	0	0	155	46	46	1	1	1	23	13.2	1	1
4	1	3	47	1	0.7	1.340953016	0.782788039	3	3	52	52	0	0	154	47	96	1	1	1	23	13.2	1	1
4	1	3	48	0	0.5	1.661548676	0.347484677	3	3	56	52	1	1	153	48	185	1	0	2	23	13.2	0	1
4	1	3	49	0	0.6	2.807391537	0.890568301	3	3	56	52	1	0	152	49	186	2	0	4	23	13.2	0	1
4	1	3	50	0	0.7	1.267608222	1.126914035	3	3	52	52	1	1	151	50	84	1	0	2	23	13.2	1	1
4	1	3	51	1	0.7	1.373560645	2.048288105	3	3	52	52	0	0	150	51	64	1	1	1	23	13.2	1	1
4	1	3	52	0	0.6	1.174849658	0.349777895	3	3	52	52	1	1	149	52	83	1	0	2	23	13.2	1	1
4	1	3	53	1	0.7	1.555790294	0.659911671	3	3	56	52	1	0	148	53	140	1	1	1	23	13.2	0	1
4	1	3	54	1	0.4	1.605843375	0.374480819	3	3	56	52	0	1	147	54	119	2	1	1	23	13.2	0	1
4	1	3	55	0	0.6	2.00460183	0.471403417	3	3	52	52	0	1	146	55	32	1	1	3	23	13.2	1	1
4	1	3	56	0	0.6	1.22748333	0.499610313	3	3	52	52	1	1	145	56	56	1	0	2	23	13.2	1	1
4	1	3	57	1	0.8	1.212384337	0.335884845	3	3	52	52	1	0	144	57	30	1	1	3	23	13.2	1	1
4	1	3	58	1	0.7	1.060622087	2.991586297	3	3	56	52	0	0	143	58	113	1	0	4	23	13.2	0	1
4	1	3	59	0	0.6	1.133124324	0.79238748	3	3	56	52	1	1	142	59	153	1	0	2	23	13.2	0	1
4	1	3	60	0	0.5	6.105615015	1.506833788	3	3	52	52	0	1	141	60	73	1	1	3	23	13.2	1	1
4	1	3	61	0	0.6	1.723101841	0.28790881	3	3	56	52	0	1	140	61	104	1	0	2	23	13.2	0	1
4	1	3	62	1	0.5	1.282822037	0.900132461	3	3	52	52	0	0	139	62	23	1	1	1	23	13.2	1	1
4	1	3	63	1	0.6	1.122957834	0.793329463	3	3	56	52	1	0	138	63	132	1	1	3	23	13.2	0	1
4	1	3	64	0	0.6	1.606834109	0.520522854	3	3	52	52	0	1	137	64	31	1	0	2	23	13.2	1	1
4	1	3	65	0	0.6	1.997497987	0.380235351	3	3	52	52	1	0	136	65	72	2	0	2	23	13.2	1	1
4	1	3	66	0	0.5	1.484769508	0.594621042	3	3	52	52	1	1	135	66	45	1	0	2	23	13.2	1	1
4	1	3	67	1	0.6	1.1894868	0.437598183	3	3	56	52	0	0	134	67	116	1	1	3	23	13.2	0	1
4	1	3	68	1	0.8	1.149165301	0.327420146	3	3	56	52	1	0	133	68	121	1	1	1	23	13.2	0	1
4	1	3	69	1	0.7	1.338306996	0.442300081	3	3	52	52	0	1	132	69	68	2	1	1	23	13.2	1	1
4	1	3	70	1	0.9	1.086105347	0.686227224	3	3	56	52	1	0	131	70	180	1	1	1	23	13.2	0	1
4	1	3	71	1	0.7	1.148765672	0.35999474	3	3	56	52	1	0	130	71	134	1	1	1	23	13.2	0	1
4	1	3	72	1	0.8	1.428916992	0.351858468	3	3	56	52	0	0	129	72	130	1	1	3	23	13.2	0	1
4	1	3	73	1	0.8	1.1349419	0.374742855	3	3	56	52	1	0	128	73	166	1	1	1	23	13.2	0	1
4	1	3	74	1	0.9	1.205113073	0.38337722	3	3	56	52	0	0	127	74	175	1	1	1	23	13.2	0	1
4	1	3	75	0	0.6	1.655655588	0.426145566	3	3	52	52	0	1	126	75	20	1	0	2	23	13.2	1	1
4	1	3	76	1	0.8	1.301145326	0.398964364	3	3	56	52	0	0	125	76	120	1	1	1	23	13.2	0	1
4	1	3	77	0	0.9	1.214580373	0.322443383	3	3	52	52	0	1	124	77	36	1	0	2	23	13.2	1	1
4	1	3	78	1	0.8	1.331784957	0.743404033	3	3	56	52	1	1	123	78	169	2	1	3	23	13.2	0	1
4	1	3	79	1	0.8	1.197330887	0.343901485	3	3	56	52	1	0	122	79	163	1	1	1	23	13.2	0	1
4	1	3	80	1	0.8	1.099418838	0.394928301	3	3	56	52	0	0	121	80	139	1	1	1	23	13.2	0	1
4	1	3	81	1	0.6	1.484824352	0.540504636	3	3	52	52	0	0	120	81	22	1	1	1	23	13.2	1	1
4	1	3	82	1	0.6	1.39738477	0.350527761	3	3	52	52	0	0	119	82	87	1	1	3	23	13.2	1	1
4	1	3	83	0	0.7	1.39142914	0.439114914	3	3	52	52	1	0	118	83	86	2	0	2	23	13.2	1	1
4	1	3	84	1	0.5	1.498877446	0.450275667	3	3	56	52	1	1	117	84	157	2	1	1	23	13.2	0	1
4	1	3	85	0	0.5	2.37175205	0.302488221	3	3	52	52	0	1	116	85	43	1	0	2	23	13.2	1	1
4	1	3	86	1	0.6	1.357976388	0.382755966	3	3	56	52	0	1	115	86	108	2	1	1	23	13.2	0	1
4	1	3	87	1	0.8	1.189120848	0.185966792	3	3	56	52	0	0	114	87	133	1	1	1	23	13.2	0	1
4	1	3	88	1	0.7	1.213839167	1.038916062	3	3	52	52	1	0	113	88	100	1	0	4	23	13.2	1	1
4	1	3	89	1	0.5	1.376596031	0.39056798	3	3	52	52	0	1	112	89	92	2	1	3	23	13.2	1	1
4	1	3	90	0	0.4	2.549545686	0.577340445	3	3	52	52	1	0	111	90	15	2	1	3	23	13.2	1	1
4	1	3	91	0	0.6	2.293586047	0.821902312	3	3	52	52	0	1	110	91	53	1	0	2	23	13.2	1	1
4	1	3	92	1	0.6	2.501631231	0.820941727	3	3	52	52	1	0	109	92	28	1	1	1	23	13.2	1	1
4	1	3	93	0	0.6	1.756941393	0.471058953	3	3	56	52	0	1	108	93	182	1	0	4	23	13.2	0	1
4	1	3	94	0	0.7	1.126020803	0.822482191	3	3	52	52	1	1	107	94	26	1	1	3	23	13.2	1	1
4	1	3	95	1	0.8	1.189810096	0.342768988	3	3	56	52	0	0	106	95	143	1	1	1	23	13.2	0	1
4	1	3	96	1	0.6	1.436768776	0.735790551	3	3	56	52	0	1	105	96	115	2	0	4	23	13.2	0	1
4	1	3	97	0	0.5	1.781092662	0.479029408	3	3	52	52	1	1	104	97	50	1	0	2	23	13.2	1	1
4	1	3	98	1	0.6	1.612621356	0.407148103	3	3	56	52	1	0	103	98	146	1	1	1	23	13.2	0	1
4	1	3	99	0	0.5	2.655256921	0.44800009	3	3	52	52	0	1	102	99	71	1	0	2	23	13.2	1	1
4	1	3	100	1	0.6	1.125034559	0.940062671	3	3	52	52	0	0	101	100	35	1	1	3	23	13.2	1	1
4	1	3	101	1	0.7	1.117906982	2.126239861	3	3	56	56	0	0	100	101	193	1	1	1	23	13.2	0	1
4	1	3	102	0	0.6	1.59954745	1.189906315	3	3	56	56	1	1	99	102	136	1	0	4	23	13.2	0	1
4	1	3	103	1	0.9	1.213827941	0.318396095	3	3	52	56	1	0	98	103	76	1	1	1	23	13.2	1	1
4	1	3	104	1	0.8	1.237654953	0.423640667	3	3	56	56	1	0	97	104	188	1	1	1	23	13.2	0	1
4	1	3	105	0	0.6	2.333853343	0.311089551	3	3	56	56	0	1	96	105	125	1	1	3	23	13.2	0	1
4	1	3	106	1	0.8	1.197344358	0.933845966	3	3	56	56	1	1	95	106	135	2	1	1	23	13.2	0	1
4	1	3	107	1	0.6	1.092887498	0.769302317	3	3	56	56	0	0	94	107	110	1	1	3	23	13.2	0	1
4	1	3	108	0	0.6	1.073065438	0.710806988	3	3	56	56	1	1	93	108	112	1	0	2	23	13.2	0	1
4	1	3	109	1	0.7	1.123741376	0.487016861	3	3	56	56	1	0	92	109	151	1	1	1	23	13.2	0	1
4	1	3	110	0	0.7	1.207532658	0.598652935	3	3	56	56	0	1	91	110	137	1	0	2	23	13.2	0	1
4	1	3	111	1	0.6	1.069646139	0.437483683	3	3	56	56	1	1	90	111	159	2	0	4	23	13.2	0	1
4	1	3	112	1	0.7	1.11833227	1.647686737	3	3	52	56	1	0	89	112	27	1	1	1	23	13.2	1	1
4	1	3	113	1	0.7	1.123325711	0.478081972	3	3	56	56	0	0	88	113	171	1	1	1	23	13.2	0	1
4	1	3	114	1	0.6	1.26951913	0.47855152	3	3	52	56	1	0	87	114	11	1	1	1	23	13.2	1	1
4	1	3	115	0	0.7	1.069388593	0.930453287	3	3	56	56	1	1	86	115	152	1	1	3	23	13.2	0	1
4	1	3	116	0	0.6	1.773340625	0.26264076	3	3	52	56	0	1	85	116	19	1	0	2	23	13.2	1	1
4	1	3	117	1	0.7	1.284112974	0.370856573	3	3	56	56	0	0	84	117	156	1	1	1	23	13.2	0	1
4	1	3	118	1	0.6	1.173969896	0.528863109	3	3	52	56	1	1	83	118	21	2	1	3	23	13.2	1	1
4	1	3	119	1	0.6	2.028857336	0.383035001	3	3	56	56	1	0	82	119	131	1	1	1	23	13.2	0	1
4	1	3	120	0	0.6	0.861368425	1.399347956	3	3	52	56	0	1	81	120	48	1	0	2	23	13.2	1	1
4	1	3	121	1	0.8	1.174248931	0.319544949	3	3	56	56	0	0	80	121	149	1	1	3	23	13.2	0	1
4	1	3	122	0	0.7	1.349759934	1.151918124	3	3	52	56	0	1	79	122	12	1	1	3	23	13.2	1	1
4	1	3	123	1	0.6	1.272844776	1.046534355	3	3	52	56	1	0	78	123	47	1	1	1	23	13.2	1	1
4	1	3	124	1	0.6	1.645271001	0.366952971	3	3	52	56	1	0	77	124	95	1	0	4	23	13.2	1	1
4	1	3	125	1	0.7	1.284392971	0.568100222	3	3	52	56	1	0	76	125	61	1	1	3	23	13.2	1	1
4	1	3	126	1	0.7	1.164703373	0.584240945	3	3	56	56	1	0	75	126	192	1	1	1	23	13.2	0	1
4	1	3	127	0	0.5	3.036936197	1.309755957	3	3	56	56	1	0	74	127	178	2	0	2	23	13.2	0	1
4	1	3	128	1	0.6	1.188370019	0.414800073	3	3	56	56	1	1	73	128	165	2	1	1	23	13.2	0	1
4	1	3	129	1	0.8	1.084750264	0.302640247	3	3	56	56	1	0	72	129	142	1	1	1	23	13.2	0	1
4	1	3	130	0	0.5	3.716101915	0.74341173	3	3	56	56	0	1	71	130	111	1	1	3	23	13.2	0	1
4	1	3	131	0	0.6	1.466235499	0.3751319	3	3	56	56	0	1	70	131	128	1	0	4	23	13.2	0	1
4	1	3	132	0	0.6	2.00510281	0.486776313	3	3	56	56	0	1	69	132	123	1	1	3	23	13.2	0	1
4	1	3	133	1	0.8	1.106027794	0.327339322	3	3	56	56	0	0	68	133	107	1	1	1	23	13.2	0	1
4	1	3	134	0	0.6	1.613149919	0.81483824	3	3	56	56	0	1	67	134	147	1	0	2	23	13.2	0	1
4	1	3	135	0	0.6	1.15581948	0.751197124	3	3	52	56	1	0	66	135	55	2	1	3	23	13.2	1	1
4	1	3	136	1	0.7	1.101642136	1.3194885	3	3	52	56	1	0	65	136	58	1	1	1	23	13.2	1	1
4	1	3	137	1	0.7	1.816299485	0.639248659	3	3	56	56	1	1	64	137	200	2	1	3	23	13.2	0	1
4	1	3	138	1	0.7	1.12676682	0.37250352	3	3	56	56	1	0	63	138	144	1	1	1	23	13.2	0	1
4	1	3	139	0	0.8	1.157615567	0.302980221	3	3	52	56	0	1	62	139	78	1	0	2	23	13.2	1	1
4	1	3	140	1	0.5	1.204127792	0.495025482	3	3	56	56	0	1	61	140	145	2	0	4	23	13.2	0	1
4	1	3	141	1	0.9	1.133029388	0.839166552	3	3	56	56	1	0	60	141	105	1	1	1	23	13.2	0	1
4	1	3	142	0	0.7	1.149188714	0.314197743	3	3	52	56	0	1	59	142	65	1	0	2	23	13.2	1	1
4	1	3	143	0	0.6	1.901080218	0.778515599	3	3	56	56	0	1	58	143	189	1	1	3	23	13.2	0	1
4	1	3	144	1	0.7	1.071730882	0.449315082	3	3	56	56	0	1	57	144	118	2	1	1	23	13.2	0	1
4	1	3	145	1	0.6	1.692245397	0.35932666	3	3	56	56	1	1	56	145	176	2	1	1	23	13.2	0	1
4	1	3	146	0	0.6	3.062900551	0.39135024	3	3	52	56	0	1	55	146	49	1	0	2	23	13.2	1	1
4	1	3	147	1	0.7	1.469521375	1.375002646	3	3	56	56	1	1	54	147	126	2	1	1	23	13.2	0	1
4	1	3	148	1	0.7	1.108842839	0.410121268	3	3	52	56	1	0	53	148	93	1	1	1	23	13.2	1	1
4	1	3	149	1	0.6	1.420169089	0.534903733	3	3	52	56	0	0	52	149	81	1	1	1	23	13.2	1	1
4	1	3	150	1	0.6	1.773780987	0.358696426	3	3	56	56	1	0	51	150	179	1	1	1	23	13.2	0	1
4	1	3	151	0	0.7	1.038052016	0.892380103	3	3	52	56	0	1	50	151	88	1	0	2	23	13.2	1	1
4	1	3	152	0	0.6	2.652996738	0.442604774	3	3	52	56	1	1	49	152	70	1	1	3	23	13.2	1	1
4	1	3	153	1	0.8	1.13312657	0.294476713	3	3	56	56	1	0	48	153	187	1	1	1	23	13.2	0	1
4	1	3	154	1	0.5	1.508874912	0.430409347	3	3	52	56	0	1	47	154	8	2	1	1	23	13.2	1	1
4	1	3	155	1	0.6	1.2136602	0.358826001	3	3	56	56	1	1	46	155	124	2	1	1	23	13.2	0	1
4	1	3	156	1	0.8	1.173516064	0.3914997	3	3	56	56	0	0	45	156	162	1	1	1	23	13.2	0	1
4	1	3	157	1	0.7	3.141076177	0.631098275	3	3	52	56	1	1	44	157	29	2	1	1	23	13.2	1	1
4	1	3	158	1	0.9	1.068548281	0.382779059	3	3	56	56	0	0	43	158	177	1	1	1	23	13.2	0	1
4	1	3	159	1	0.6	1.893737752	0.911245746	3	3	56	56	1	0	42	159	154	1	1	1	23	13.2	0	1
4	1	3	160	1	0.6	1.851262232	0.287917791	3	3	56	56	0	0	41	160	168	1	1	1	23	13.2	0	1
4	1	3	161	1	0.7	1.10170115	1.85481271	3	3	56	56	0	1	40	161	114	2	1	1	23	13.2	0	1
4	1	3	162	1	0.6	1.509491355	0.359450782	3	3	52	56	0	1	39	162	59	2	1	1	23	13.2	1	1
4	1	3	163	1	0.8	1.228072831	0.306906594	3	3	56	56	0	0	38	163	101	1	1	3	23	13.2	0	1
4	1	3	164	1	0.6	2.280791818	0.517975618	3	3	52	56	1	0	37	164	38	1	1	1	23	13.2	1	1
4	1	3	165	1	0.8	1.037398369	0.310252126	3	3	56	56	1	0	36	165	195	1	1	1	23	13.2	0	1
4	1	3	166	0	0.7	1.130215947	0.351762891	3	3	52	56	0	1	35	166	40	1	1	3	23	13.2	1	1
4	1	3	167	1	0.7	2.08611529	0.521876654	3	3	56	56	1	1	34	167	199	2	1	1	23	13.2	0	1
4	1	3	168	1	0.8	1.084825635	0.287461071	3	3	56	56	0	0	33	168	117	1	1	1	23	13.2	0	1
4	1	3	169	1	0.7	1.453406631	0.392874348	3	3	56	56	1	1	32	169	174	2	1	1	23	13.2	0	1
4	1	3	170	0	0.7	1.293581557	0.367540869	3	3	52	56	0	1	31	170	63	1	0	2	23	13.2	1	1
4	1	3	171	1	0.8	1.118066064	0.374750232	3	3	56	56	0	0	30	171	160	1	1	1	23	13.2	0	1
4	1	3	172	1	0.6	1.97722819	0.387093836	3	3	52	56	1	1	29	172	79	2	1	1	23	13.2	1	1
4	1	3	173	1	0.6	1.214265417	0.671472374	3	3	52	56	1	0	28	173	4	1	0	4	23	13.2	1	1
4	1	3	174	0	0.6	1.061276376	1.528407352	3	3	52	56	1	1	27	174	94	1	0	2	23	13.2	1	1
4	1	3	175	0	0.7	1.237073149	0.975441725	3	3	56	56	0	1	26	175	129	1	0	4	23	13.2	0	1
4	1	3	176	0	0.6	1.397091944	0.279463996	3	3	56	56	1	1	25	176	167	1	0	4	23	13.2	0	1
4	1	3	177	0	0.7	1.149802912	0.374136034	3	3	52	56	0	0	24	177	9	2	1	3	23	13.2	1	1
4	1	3	178	0	0.7	1.261349182	0.975082508	3	3	56	56	0	1	23	178	173	1	1	3	23	13.2	0	1
4	1	3	179	0	0.6	1.253042603	0.46659215	3	3	52	56	0	1	22	179	6	1	0	2	23	13.2	1	1
4	1	3	180	1	0.6	1.253708437	0.526319081	3	3	52	56	0	0	21	180	41	1	1	3	23	13.2	1	1
4	1	3	181	1	0.7	1.188496387	0.312077719	3	3	56	56	0	0	20	181	158	1	1	1	23	13.2	0	1
4	1	3	182	1	0.8	1.189541645	0.295165962	3	3	56	56	1	0	19	182	194	1	1	1	23	13.2	0	1
4	1	3	183	0	0.7	1.037337751	0.291550055	3	3	52	56	0	1	18	183	18	1	0	2	23	13.2	1	1
4	1	3	184	1	0.6	1.072374587	0.704105982	3	3	56	56	1	1	17	184	138	2	1	1	23	13.2	0	1
4	1	3	185	0	0.8	1.206284057	0.327915032	3	3	52	56	1	1	16	185	10	1	1	3	23	13.2	1	1
4	1	3	186	1	0.6	1.453440628	0.485015828	3	3	56	56	0	1	15	186	184	2	1	3	23	13.2	0	1
4	1	3	187	1	0.6	1.150227237	1.064000013	3	3	52	56	0	0	14	187	13	1	1	1	23	13.2	1	1
4	1	3	188	0	0.6	1.900984961	0.489957952	3	3	52	56	0	0	13	188	67	2	1	3	23	13.2	1	1
4	1	3	189	1	0.5	1.696406223	0.384948796	3	3	52	56	1	0	12	189	60	1	1	3	23	13.2	1	1
4	1	3	190	0	0.6	2.6568827	1.572908281	3	3	52	56	0	0	11	190	85	2	0	2	23	13.2	1	1
4	1	3	191	0	0.6	1.216943189	0.471067613	3	3	56	56	1	1	10	191	191	1	1	3	23	13.2	0	1
4	1	3	192	1	0.6	1.15857968	0.479258409	3	3	56	56	0	0	9	192	181	1	1	1	23	13.2	0	1
4	1	3	193	1	0.6	1.057310232	0.336157145	3	3	52	56	0	0	8	193	82	1	1	1	23	13.2	1	1
4	1	3	194	0	0.7	1.115921986	0.294711167	3	3	52	56	0	1	7	194	25	1	0	2	23	13.2	1	1
4	1	3	195	1	0.7	1.649352607	0.487036105	3	3	52	56	0	0	6	195	16	1	1	1	23	13.2	1	1
4	1	3	196	0	0.6	1.658520345	0.471952827	3	3	52	56	0	0	5	196	1	2	0	4	23	13.2	1	1
4	1	3	197	0	0.6	1.045976606	0.415183345	3	3	52	56	1	1	4	197	98	1	0	2	23	13.2	1	1
4	1	3	198	0	0.6	1.09334582	0.477585482	3	3	52	56	1	1	3	198	24	1	1	3	23	13.2	1	1
4	1	3	199	1	0.6	1.78236211	0.371319386	3	3	52	56	1	0	2	199	91	1	1	1	23	13.2	1	1
4	1	3	200	1	0.6	1.313319905	0.296081003	3	3	56	56	1	1	1	200	155	2	1	3	23	13.2	0	1
5	1	3	1	1	0.8	1.010251067	3.866725487	4	4	58	52	0	1	200	1	197	2	1	3	18	14.6	0	1
5	1	3	2	1	0.6	1.47559816	0.397155785	4	4	52	52	1	0	199	2	69	1	1	1	18	14.6	1	1
5	1	3	3	1	0.9	1.191433872	0.581254582	4	4	52	52	0	0	198	3	89	1	1	1	18	14.6	1	1
5	1	3	4	1	0.8	0.964008598	0.585916578	4	4	52	52	0	1	197	4	33	2	1	1	18	14.6	1	1
5	1	3	5	1	0.9	1.031338771	2.244106918	4	4	52	52	0	1	196	5	66	2	1	1	18	14.6	1	1
5	1	3	6	1	0.9	1.047921313	0.787545005	4	4	58	52	1	1	195	6	148	2	1	1	18	14.6	0	1
5	1	3	7	0	0.7	1.076530239	0.389482543	4	4	52	52	1	1	194	7	97	1	0	2	18	14.6	1	1
5	1	3	8	1	0.7	2.58417205	0.555966078	4	4	52	52	1	0	193	8	75	1	0	4	18	14.6	1	1
5	1	3	9	1	0.8	0.768834033	1.123600936	4	4	58	52	0	1	192	9	172	2	1	1	18	14.6	0	1
5	1	3	10	1	0.8	1.424107418	1.266828374	4	4	52	52	1	0	191	10	17	1	1	1	18	14.6	1	1
5	1	3	11	1	0.6	5.560796644	2.692910277	4	4	58	52	0	1	190	11	164	2	1	1	18	14.6	0	1
5	1	3	12	1	0.8	1.101547092	0.483434136	4	4	58	52	1	1	189	12	141	2	0	4	18	14.6	0	1
5	1	3	13	0	0.6	2.964718353	1.307138472	4	4	52	52	0	0	188	13	39	2	0	2	18	14.6	1	1
5	1	3	14	1	0.7	1.195863024	1.875344213	4	4	58	52	1	1	187	14	150	2	1	3	18	14.6	0	1
5	1	3	15	1	0.9	1.576529276	1.26331103	4	4	52	52	0	0	186	15	54	1	1	1	18	14.6	1	1
5	1	3	16	1	0.7	1.838752743	0.366159415	4	4	52	52	0	1	185	16	14	2	1	1	18	14.6	1	1
5	1	3	17	1	0.6	1.678329866	1.250848787	4	4	52	52	0	0	184	17	42	1	1	1	18	14.6	1	1
5	1	3	18	1	0.8	1.204445509	0.332519024	4	4	58	52	1	0	183	18	190	1	1	3	18	14.6	0	1
5	1	3	19	1	0.9	1.13834113	0.285567121	4	4	52	52	1	0	182	19	62	1	1	1	18	14.6	1	1
5	1	3	20	1	0.9	1.244176065	0.523270209	4	4	58	52	1	1	181	20	127	2	1	1	18	14.6	0	1
5	1	3	21	0	0.8	1.24805454	2.490861064	4	4	52	52	1	1	180	21	57	1	1	3	18	14.6	1	1
5	1	3	22	0	0.8	1.572644066	1.547815924	4	4	52	52	0	1	179	22	90	1	0	2	18	14.6	1	1
5	1	3	23	0	0.9	1.070688311	1.204143839	4	4	52	52	0	0	178	23	77	2	0	2	18	14.6	1	1
5	1	3	24	1	0.8	1.475822665	1.293258002	4	4	58	52	1	1	177	24	106	2	1	1	18	14.6	0	1
5	1	3	25	1	0.8	1.207811473	0.410776792	4	4	52	52	1	0	176	25	80	1	1	1	18	14.6	1	1
5	1	3	26	0	0.7	1.089539631	0.820078589	4	4	52	52	1	0	175	26	51	2	0	2	18	14.6	1	1
5	1	3	27	1	0.7	1.114106193	0.792091541	4	4	58	52	0	1	174	27	102	2	1	1	18	14.6	0	1
5	1	3	28	1	0.8	0.93259497	0.77216677	4	4	58	52	0	0	173	28	161	1	0	4	18	14.6	0	1
5	1	3	29	0	0.6	1.205592406	0.435229177	4	4	52	52	1	1	172	29	2	1	0	2	18	14.6	1	1
5	1	3	30	1	0.7	1.212042741	7.563930214	4	4	58	52	0	0	171	30	122	1	1	1	18	14.6	0	1
5	1	3	31	0	0.6	2.387839683	3.129119256	4	4	52	52	1	1	170	31	37	1	0	2	18	14.6	1	1
5	1	3	32	0	0.9	1.121939154	0.396869381	4	4	52	52	1	0	169	32	99	2	0	2	18	14.6	1	1
5	1	3	33	1	0.9	1.227961711	0.388653159	4	4	52	52	1	1	168	33	34	2	1	1	18	14.6	1	1
5	1	3	34	0	0.7	1.734406272	0.586007663	4	4	58	52	1	1	167	34	198	1	0	2	18	14.6	0	1
5	1	3	35	0	0.7	0.991189675	1.963785184	4	4	52	52	0	0	166	35	74	2	0	2	18	14.6	1	1
5	1	3	36	1	0.8	1.156681221	4.866968593	4	4	58	52	1	0	165	36	196	1	1	1	18	14.6	0	1
5	1	3	37	1	0.6	2.100837338	0.580728921	4	4	52	52	1	1	164	37	44	2	1	1	18	14.6	1	1
5	1	3	38	0	0.7	0.956231763	0.491295	4	4	52	52	0	1	163	38	52	1	1	3	18	14.6	1	1
5	1	3	39	1	0.8	0.91683636	1.227057728	4	4	52	52	0	0	162	39	3	1	1	3	18	14.6	1	1
5	1	3	40	1	0.7	0.820611499	2.005836475	4	4	52	52	1	1	161	40	7	2	1	1	18	14.6	1	1
5	1	3	41	1	0.8	1.091935735	0.517461316	4	4	52	52	0	0	160	41	5	1	1	1	18	14.6	1	1
5	1	3	42	1	0.7	1.266093154	1.943046102	4	4	58	52	0	1	159	42	103	2	1	1	18	14.6	0	1
5	1	3	43	1	0.9	1.159318828	0.266952493	4	4	58	52	1	1	158	43	109	2	1	1	18	14.6	0	1
5	1	3	44	1	1	1.161860539	0.776127349	4	4	58	52	1	0	157	44	170	1	1	1	18	14.6	0	1
5	1	3	45	1	1	0.961519485	0.739704385	4	4	58	52	1	0	156	45	183	1	1	1	18	14.6	0	1
5	1	3	46	1	1	1.060890295	0.207790754	4	4	52	52	0	0	155	46	46	1	1	1	18	14.6	1	1
5	1	3	47	1	0.8	1.488197992	1.763840861	4	4	52	52	0	0	154	47	96	1	1	1	18	14.6	1	1
5	1	3	48	0	0.9	1.607289596	0.975101171	4	4	58	52	1	1	153	48	185	1	0	2	18	14.6	0	1
5	1	3	49	1	0.9	1.148394761	0.411709448	4	4	58	52	1	0	152	49	186	1	1	3	18	14.6	0	1
5	1	3	50	0	0.9	1.238798863	0.851355269	4	4	52	52	1	1	151	50	84	1	0	2	18	14.6	1	1
5	1	3	51	0	0.9	0.956158639	1.027926753	4	4	52	52	0	0	150	51	64	2	0	2	18	14.6	1	1
5	1	3	52	0	0.8	1.157861152	0.366306626	4	4	52	52	1	1	149	52	83	1	1	3	18	14.6	1	1
5	1	3	53	1	0.9	0.94076565	1.154573573	4	4	58	52	1	0	148	53	140	1	1	1	18	14.6	0	1
5	1	3	54	1	0.6	1.636404939	0.315555786	4	4	58	52	0	1	147	54	119	2	1	3	18	14.6	0	1
5	1	3	55	0	0.5	1.692711623	0.099706605	4	4	52	52	0	1	146	55	32	1	0	2	18	14.6	1	1
5	1	3	56	0	0.5	1.303236136	0.624906911	4	4	52	52	1	1	145	56	56	1	0	2	18	14.6	1	1
5	1	3	57	1	0.8	0.998979339	0.261499279	4	4	52	52	1	0	144	57	30	1	1	1	18	14.6	1	1
5	1	3	58	1	0.7	1.024980805	3.26722703	4	4	58	52	0	0	143	58	113	1	1	1	18	14.6	0	1
5	1	3	59	0	0.6	1.925310121	0.563130016	4	4	58	52	1	1	142	59	153	1	0	2	18	14.6	0	1
5	1	3	60	0	0.8	1.055656134	0.301032592	4	4	52	52	0	1	141	60	73	1	0	4	18	14.6	1	1
5	1	3	61	1	0.8	1.394088605	0.834535394	4	4	58	52	0	1	140	61	104	2	1	3	18	14.6	0	1
5	1	3	62	1	0.8	3.027347723	1.589567021	4	4	52	52	0	0	139	62	23	1	1	1	18	14.6	1	1
5	1	3	63	1	1	0.926300506	0.765554472	4	4	58	52	1	0	138	63	132	1	1	1	18	14.6	0	1
5	1	3	64	1	0.6	2.783808802	0.329644725	4	4	52	52	0	1	137	64	31	2	1	1	18	14.6	1	1
5	1	3	65	1	0.7	3.524596582	0.511767883	4	4	52	52	1	0	136	65	72	1	1	1	18	14.6	1	1
5	1	3	66	1	0.8	1.190905965	0.488205818	4	4	52	52	1	1	135	66	45	2	1	1	18	14.6	1	1
5	1	3	67	1	0.9	0.932636664	0.216393765	4	4	58	52	0	0	134	67	116	1	1	1	18	14.6	0	1
5	1	3	68	1	0.9	1.035671387	1.707162462	4	4	58	52	1	0	133	68	121	1	1	3	18	14.6	0	1
5	1	3	69	0	0.7	2.939495596	0.324537248	4	4	52	52	0	1	132	69	68	1	0	2	18	14.6	1	1
5	1	3	70	1	0.7	1.932341922	1.471197039	4	4	58	52	1	0	131	70	180	1	1	3	18	14.6	0	1
5	1	3	71	1	0.8	4.00782738	1.123703567	4	4	58	52	1	0	130	71	134	1	1	1	18	14.6	0	1
5	1	3	72	1	0.9	1.285391879	0.251273421	4	4	58	52	0	0	129	72	130	1	1	1	18	14.6	0	1
5	1	3	73	1	0.8	1.738986163	0.19866561	4	4	58	52	1	0	128	73	166	1	1	1	18	14.6	0	1
5	1	3	74	1	1	0.845470237	1.292334327	4	4	58	52	0	0	127	74	175	1	1	1	18	14.6	0	1
5	1	3	75	0	0.8	1.299742846	0.40404711	4	4	52	52	0	1	126	75	20	1	1	3	18	14.6	1	1
5	1	3	76	1	0.8	1.090731429	0.284220094	4	4	58	52	0	0	125	76	120	1	1	1	18	14.6	0	1
5	1	3	77	1	0.7	1.289368174	0.55875731	4	4	52	52	0	1	124	77	36	2	1	1	18	14.6	1	1
5	1	3	78	1	1	2.316759002	1.029828305	4	4	58	52	1	1	123	78	169	2	1	1	18	14.6	0	1
5	1	3	79	1	1	1.468175722	1.047772948	4	4	58	52	1	0	122	79	163	1	1	1	18	14.6	0	1
5	1	3	80	1	0.9	0.987763095	0.332045319	4	4	58	52	0	0	121	80	139	1	1	1	18	14.6	0	1
5	1	3	81	0	0.8	1.916248158	0.283440101	4	4	52	52	0	0	120	81	22	2	1	3	18	14.6	1	1
5	1	3	82	0	0.6	1.742430062	0.283848699	4	4	52	52	0	0	119	82	87	2	0	2	18	14.6	1	1
5	1	3	83	1	0.7	1.470178943	1.983270568	4	4	52	52	1	0	118	83	86	1	0	4	18	14.6	1	1
5	1	3	84	0	0.6	4.510680191	2.048493607	4	4	58	52	1	1	117	84	157	1	0	2	18	14.6	0	1
5	1	3	85	0	0.7	0.996155393	0.28698631	4	4	52	52	0	1	116	85	43	1	0	2	18	14.6	1	1
5	1	3	86	1	0.8	0.948120416	0.733089842	4	4	58	52	0	1	115	86	108	2	1	1	18	14.6	0	1
5	1	3	87	1	0.9	0.955561136	1.247847162	4	4	58	52	0	0	114	87	133	1	1	1	18	14.6	0	1
5	1	3	88	1	0.9	1.026359904	0.323645645	4	4	52	52	1	0	113	88	100	1	1	1	18	14.6	1	1
5	1	3	89	1	0.8	1.194499961	0.26761895	4	4	52	52	0	1	112	89	92	2	1	1	18	14.6	1	1
5	1	3	90	1	0.7	1.045066899	0.810405975	4	4	52	52	1	0	111	90	15	1	1	1	18	14.6	1	1
5	1	3	91	0	0.6	1.320075254	1.582035216	4	4	52	52	0	1	110	91	53	1	1	3	18	14.6	1	1
5	1	3	92	0	0.8	1.292133107	0.907245978	4	4	52	52	1	0	109	92	28	2	1	3	18	14.6	1	1
5	1	3	93	1	0.9	1.241955716	0.674676345	4	4	58	52	0	1	108	93	182	2	0	4	18	14.6	0	1
5	1	3	94	1	0.8	1.312108552	0.288149243	4	4	52	52	1	1	107	94	26	2	1	1	18	14.6	1	1
5	1	3	95	1	0.8	1.036381142	0.649051404	4	4	58	52	0	0	106	95	143	1	1	3	18	14.6	0	1
5	1	3	96	1	0.9	0.915693953	0.571029366	4	4	58	52	0	1	105	96	115	2	1	1	18	14.6	0	1
5	1	3	97	1	0.7	1.125764069	0.307416217	4	4	52	52	1	1	104	97	50	2	1	3	18	14.6	1	1
5	1	3	98	1	0.7	1.772480306	1.943729558	4	4	58	52	1	0	103	98	146	1	1	1	18	14.6	0	1
5	1	3	99	1	0.7	0.941000738	0.55565562	4	4	52	52	0	1	102	99	71	2	1	1	18	14.6	1	1
5	1	3	100	1	0.6	2.369774771	0.14135475	4	4	52	52	0	0	101	100	35	1	1	1	18	14.6	1	1
5	1	3	101	1	0.8	0.949389508	1.078932885	4	4	58	58	0	0	100	101	193	1	1	3	18	14.6	0	1
5	1	3	102	1	0.9	1.092564027	0.291577426	4	4	58	58	1	1	99	102	136	2	1	1	18	14.6	0	1
5	1	3	103	1	0.6	0.612168527	1.251205749	4	4	52	58	1	0	98	103	76	1	1	1	18	14.6	1	1
5	1	3	104	1	0.7	1.085733318	1.8796284	4	4	58	58	1	0	97	104	188	1	1	1	18	14.6	0	1
5	1	3	105	1	0.9	0.993674619	0.291127455	4	4	58	58	0	1	96	105	125	2	1	1	18	14.6	0	1
5	1	3	106	1	0.9	0.877484254	0.296556935	4	4	58	58	1	1	95	106	135	2	1	1	18	14.6	0	1
5	1	3	107	1	0.9	0.935066444	0.215959189	4	4	58	58	0	0	94	107	110	1	1	1	18	14.6	0	1
5	1	3	108	1	0.7	1.174172685	0.802463006	4	4	58	58	1	1	93	108	112	2	1	1	18	14.6	0	1
5	1	3	109	1	0.9	1.014485542	0.344882485	4	4	58	58	1	0	92	109	151	1	1	1	18	14.6	0	1
5	1	3	110	1	0.8	0.988907106	0.27938972	4	4	58	58	0	1	91	110	137	2	1	3	18	14.6	0	1
5	1	3	111	1	0.8	0.966891235	0.399058621	4	4	58	58	1	1	90	111	159	2	1	3	18	14.6	0	1
5	1	3	112	1	0.5	1.117195054	0.727385504	4	4	52	58	1	0	89	112	27	1	0	4	18	14.6	1	1
5	1	3	113	1	0.7	1.719147345	0.793720802	4	4	58	58	0	0	88	113	171	1	1	1	18	14.6	0	1
5	1	3	114	0	0.7	1.861662783	0.667890537	4	4	52	58	1	0	87	114	11	2	0	2	18	14.6	1	1
5	1	3	115	1	0.9	0.989515513	0.22027192	4	4	58	58	1	1	86	115	152	2	1	1	18	14.6	0	1
5	1	3	116	0	0.7	0.909700325	0.431451409	4	4	52	58	0	1	85	116	19	1	0	2	18	14.6	1	1
5	1	3	117	0	0.6	1.061300497	0.321434276	4	4	58	58	0	0	84	117	156	2	1	3	18	14.6	0	1
5	1	3	118	0	0.7	0.949084503	1.015615248	4	4	52	58	1	1	83	118	21	1	0	2	18	14.6	1	1
5	1	3	119	1	0.6	1.189136229	0.198475422	4	4	58	58	1	0	82	119	131	1	0	4	18	14.6	0	1
5	1	3	120	1	0.7	0.977891313	1.017122315	4	4	52	58	0	1	81	120	48	2	1	1	18	14.6	1	1
5	1	3	121	1	0.8	0.885635049	0.942707101	4	4	58	58	0	0	80	121	149	1	1	1	18	14.6	0	1
5	1	3	122	0	0.8	1.77913077	6.077387012	4	4	52	58	0	1	79	122	12	1	0	2	18	14.6	1	1
5	1	3	123	0	0.6	1.364188137	0.366727411	4	4	52	58	1	0	78	123	47	2	0	2	18	14.6	1	1
5	1	3	124	1	0.6	1.533899726	0.241833971	4	4	52	58	1	0	77	124	95	1	1	1	18	14.6	1	1
5	1	3	125	1	0.8	1.259432748	0.322117731	4	4	52	58	1	0	76	125	61	1	1	1	18	14.6	1	1
5	1	3	126	1	0.7	1.189304286	0.349537425	4	4	58	58	1	0	75	126	192	1	1	1	18	14.6	0	1
5	1	3	127	0	0.7	1.025357652	0.335212115	4	4	58	58	1	0	74	127	178	2	0	2	18	14.6	0	1
5	1	3	128	1	0.9	0.834478499	0.487789202	4	4	58	58	1	1	73	128	165	2	1	1	18	14.6	0	1
5	1	3	129	1	0.8	0.73484149	1.583840553	4	4	58	58	1	0	72	129	142	1	1	1	18	14.6	0	1
5	1	3	130	1	0.9	0.9514774	0.119661204	4	4	58	58	0	1	71	130	111	2	1	1	18	14.6	0	1
5	1	3	131	1	0.9	0.811389176	0.232999078	4	4	58	58	0	1	70	131	128	2	1	1	18	14.6	0	1
5	1	3	132	1	0.8	0.62865357	0.614776307	4	4	58	58	0	1	69	132	123	2	1	1	18	14.6	0	1
5	1	3	133	0	0.7	1.573147277	0.441664438	4	4	58	58	0	0	68	133	107	2	0	2	18	14.6	0	1
5	1	3	134	1	0.7	1.047926124	2.623680154	4	4	58	58	0	1	67	134	147	2	1	1	18	14.6	0	1
5	1	3	135	1	0.7	1.141419728	1.023456227	4	4	52	58	1	0	66	135	55	1	1	1	18	14.6	1	1
5	1	3	136	0	0.6	4.317032577	0.119323805	4	4	52	58	1	0	65	136	58	2	1	3	18	14.6	1	1
5	1	3	137	1	0.8	1.138069159	1.233605882	4	4	58	58	1	1	64	137	200	2	1	1	18	14.6	0	1
5	1	3	138	1	0.8	1.451427367	0.217565679	4	4	58	58	1	0	63	138	144	1	1	1	18	14.6	0	1
5	1	3	139	0	0.7	1.244920779	0.207266055	4	4	52	58	0	1	62	139	78	1	0	2	18	14.6	1	1
5	1	3	140	1	0.8	0.933184134	0.256107965	4	4	58	58	0	1	61	140	145	2	1	1	18	14.6	0	1
5	1	3	141	1	0.9	1.622355129	0.607015187	4	4	58	58	1	0	60	141	105	1	1	1	18	14.6	0	1
5	1	3	142	1	1	1.010449913	0.945193327	4	4	52	58	0	1	59	142	65	2	1	1	18	14.6	1	1
5	1	3	143	1	0.9	0.989294216	0.374511302	4	4	58	58	0	1	58	143	189	2	1	1	18	14.6	0	1
5	1	3	144	0	0.8	1.08424325	0.191341312	4	4	58	58	0	1	57	144	118	1	1	3	18	14.6	0	1
5	1	3	145	1	0.7	1.073104942	0.569241348	4	4	58	58	1	1	56	145	176	2	1	1	18	14.6	0	1
5	1	3	146	1	0.9	0.940630627	0.18306768	4	4	52	58	0	1	55	146	49	2	1	1	18	14.6	1	1
5	1	3	147	1	0.9	0.917439315	0.781092426	4	4	58	58	1	1	54	147	126	2	1	1	18	14.6	0	1
5	1	3	148	0	0.7	1.753779084	0.191485957	4	4	52	58	1	0	53	148	93	2	0	2	18	14.6	1	1
5	1	3	149	1	0.6	1.429026953	0.124404021	4	4	52	58	0	0	52	149	81	1	0	4	18	14.6	1	1
5	1	3	150	1	0.9	0.919142342	0.193230677	4	4	58	58	1	0	51	150	179	1	1	1	18	14.6	0	1
5	1	3	151	0	0.7	1.804396182	0.295240377	4	4	52	58	0	1	50	151	88	1	0	2	18	14.6	1	1
5	1	3	152	0	0.8	0.997532568	0.21509196	4	4	52	58	1	1	49	152	70	1	0	2	18	14.6	1	1
5	1	3	153	1	0.8	0.93324475	0.274626376	4	4	58	58	1	0	48	153	187	1	1	1	18	14.6	0	1
5	1	3	154	0	0.8	1.036592497	0.223866236	4	4	52	58	0	1	47	154	8	1	0	2	18	14.6	1	1
5	1	3	155	1	0.8	0.993603739	0.304890221	4	4	58	58	1	1	46	155	124	2	1	1	18	14.6	0	1
5	1	3	156	1	0.8	1.006312296	0.288195747	4	4	58	58	0	0	45	156	162	1	1	3	18	14.6	0	1
5	1	3	157	0	0.7	1.224812555	0.208525204	4	4	52	58	1	1	44	157	29	1	0	2	18	14.6	1	1
5	1	3	158	1	0.9	0.927616102	0.310091668	4	4	58	58	0	0	43	158	177	1	1	1	18	14.6	0	1
5	1	3	159	1	0.9	0.954727904	0.559758921	4	4	58	58	1	0	42	159	154	1	1	1	18	14.6	0	1
5	1	3	160	1	0.9	0.811311562	0.327511291	4	4	58	58	0	0	41	160	168	1	1	1	18	14.6	0	1
5	1	3	161	1	0.8	1.581287809	0.251763483	4	4	58	58	0	1	40	161	114	2	1	3	18	14.6	0	1
5	1	3	162	1	0.7	1.123292916	0.743633214	4	4	52	58	0	1	39	162	59	2	1	3	18	14.6	1	1
5	1	3	163	1	0.8	0.961154505	0.710339842	4	4	58	58	0	0	38	163	101	1	1	3	18	14.6	0	1
5	1	3	164	1	0.8	0.814543143	1.613425431	4	4	52	58	1	0	37	164	38	1	1	1	18	14.6	1	1
5	1	3	165	0	0.6	0.956894372	0.375045302	4	4	58	58	1	0	36	165	195	2	1	3	18	14.6	0	1
5	1	3	166	0	0.7	0.915368742	0.257198736	4	4	52	58	0	1	35	166	40	1	0	2	18	14.6	1	1
5	1	3	167	1	0.7	0.931430113	0.721514071	4	4	58	58	1	1	34	167	199	2	1	1	18	14.6	0	1
5	1	3	168	1	0.8	0.890038865	1.378973809	4	4	58	58	0	0	33	168	117	1	1	3	18	14.6	0	1
5	1	3	169	1	0.8	0.932571237	0.92823875	4	4	58	58	1	1	32	169	174	2	1	1	18	14.6	0	1
5	1	3	170	0	0.7	1.010505077	0.880421222	4	4	52	58	0	1	31	170	63	1	0	2	18	14.6	1	1
5	1	3	171	1	0.9	1.00917569	0.441177263	4	4	58	58	0	0	30	171	160	1	1	1	18	14.6	0	1
5	1	3	172	1	0.7	1.003734343	0.311314576	4	4	52	58	1	1	29	172	79	2	1	3	18	14.6	1	1
5	1	3	173	0	0.6	2.391432717	0.128175696	4	4	52	58	1	0	28	173	4	2	0	2	18	14.6	1	1
5	1	3	174	1	0.6	2.106398634	0.207818657	4	4	52	58	1	1	27	174	94	2	1	1	18	14.6	1	1
5	1	3	175	0	0.7	1.831710358	0.255366779	4	4	58	58	0	1	26	175	129	1	0	2	18	14.6	0	1
5	1	3	176	1	0.7	1.137486089	0.441697793	4	4	58	58	1	1	25	176	167	2	1	1	18	14.6	0	1
5	1	3	177	1	0.7	1.000375115	0.179025317	4	4	52	58	0	0	24	177	9	1	1	1	18	14.6	1	1
5	1	3	178	0	0.8	1.061332248	0.119090962	4	4	58	58	0	1	23	178	173	1	0	2	18	14.6	0	1
5	1	3	179	0	1	0.766470321	0.600804432	4	4	52	58	0	1	22	179	6	1	0	2	18	14.6	1	1
5	1	3	180	1	0.7	3.079990494	0.249121386	4	4	52	58	0	0	21	180	41	1	1	1	18	14.6	1	1
5	1	3	181	1	1	1.103870714	0.503369171	4	4	58	58	0	0	20	181	158	1	1	1	18	14.6	0	1
5	1	3	182	1	0.8	1.029682249	0.952216148	4	4	58	58	1	0	19	182	194	1	1	1	18	14.6	0	1
5	1	3	183	0	0.8	1.511191099	0.335679726	4	4	52	58	0	1	18	183	18	1	0	2	18	14.6	1	1
5	1	3	184	1	0.9	0.852770802	0.351630127	4	4	58	58	1	1	17	184	138	2	1	1	18	14.6	0	1
5	1	3	185	1	0.8	1.029227147	1.001031758	4	4	52	58	1	1	16	185	10	2	1	3	18	14.6	1	1
5	1	3	186	1	1	0.918566007	1.122484508	4	4	58	58	0	1	15	186	184	2	1	1	18	14.6	0	1
5	1	3	187	1	0.8	3.738150686	1.361055787	4	4	52	58	0	0	14	187	13	1	1	3	18	14.6	1	1
5	1	3	188	1	0.9	1.341378162	0.329303478	4	4	52	58	0	0	13	188	67	1	1	1	18	14.6	1	1
5	1	3	189	0	0.9	0.939551402	0.248432157	4	4	52	58	1	0	12	189	60	2	0	2	18	14.6	1	1
5	1	3	190	1	0.9	1.852095685	0.243445913	4	4	52	58	0	0	11	190	85	1	1	1	18	14.6	1	1
5	1	3	191	1	0.9	1.114920824	0.305491572	4	4	58	58	1	1	10	191	191	2	1	3	18	14.6	0	1
5	1	3	192	0	0.9	2.577814404	0.236125784	4	4	58	58	0	0	9	192	181	2	0	2	18	14.6	0	1
5	1	3	193	1	0.7	1.033569384	0.244942395	4	4	52	58	0	0	8	193	82	1	1	1	18	14.6	1	1
5	1	3	194	1	0.8	0.89249783	0.209034188	4	4	52	58	0	1	7	194	25	2	1	3	18	14.6	1	1
5	1	3	195	1	0.7	1.088115311	0.303591623	4	4	52	58	0	0	6	195	16	1	1	1	18	14.6	1	1
5	1	3	196	1	0.7	1.013357888	1.995268729	4	4	52	58	0	0	5	196	1	1	1	3	18	14.6	1	1
5	1	3	197	1	0.8	1.053137835	0.815312359	4	4	52	58	1	1	4	197	98	2	1	1	18	14.6	1	1
5	1	3	198	1	0.6	1.420990334	0.151641545	4	4	52	58	1	1	3	198	24	2	1	3	18	14.6	1	1
5	1	3	199	1	0.7	1.058289571	0.45887495	4	4	52	58	1	0	2	199	91	1	1	1	18	14.6	1	1
5	1	3	200	1	0.6	1.044445984	0.247892384	4	4	58	58	1	1	1	200	155	2	0	4	18	14.6	0	1
6	1	3	1	1	0.5	1.499023922	2.94887793	2	2	54	51	0	1	200	1	197	2	1	1	20	12	0	1
6	1	3	2	0	0.6	1.267987754	1.963124938	2	2	51	51	1	0	199	2	69	2	1	3	20	12	1	1
6	1	3	3	0	0.6	1.285008987	2.43308345	2	2	51	51	0	0	198	3	89	2	0	2	20	12	1	1
6	1	3	4	1	0.5	1.252951775	1.095642126	2	2	51	51	0	1	197	4	33	2	1	3	20	12	1	1
6	1	3	5	1	0.7	1.317479926	1.471162814	2	2	51	51	0	1	196	5	66	2	1	1	20	12	1	1
6	1	3	6	1	0.7	1.253275702	2.591692142	2	2	54	51	1	1	195	6	148	2	1	1	20	12	0	1
6	1	3	7	1	0.7	1.197457335	3.339731583	2	2	51	51	1	1	194	7	97	2	1	1	20	12	1	1
6	1	3	8	1	0.7	0.949192107	2.237846971	2	2	51	51	1	0	193	8	75	1	1	1	20	12	1	1
6	1	3	9	1	0.6	1.653578718	3.566631751	2	2	54	51	0	1	192	9	172	2	1	1	20	12	0	1
6	1	3	10	0	0.5	1.997263812	0.885278263	2	2	51	51	1	0	191	10	17	2	0	2	20	12	1	1
6	1	3	11	1	0.6	2.133461578	2.534422839	2	2	54	51	0	1	190	11	164	2	1	1	20	12	0	1
6	1	3	12	1	0.7	1.70126588	1.756939411	2	2	54	51	1	1	189	12	141	2	1	1	20	12	0	1
6	1	3	13	1	0.8	1.429456624	1.528285228	2	2	51	51	0	0	188	13	39	1	1	3	20	12	1	1
6	1	3	14	1	0.6	1.45361868	1.855004253	2	2	54	51	1	1	187	14	150	2	1	3	20	12	0	1
6	1	3	15	0	0.7	1.189670262	2.111439813	2	2	51	51	0	0	186	15	54	2	0	2	20	12	1	1
6	1	3	16	1	0.6	1.349449581	3.66179857	2	2	51	51	0	1	185	16	14	2	0	4	20	12	1	1
6	1	3	17	0	0.7	1.397385942	2.183609109	2	2	51	51	0	0	184	17	42	2	1	3	20	12	1	1
6	1	3	18	1	0.8	1.060643787	1.558976815	2	2	54	51	1	0	183	18	190	1	1	1	20	12	0	1
6	1	3	19	1	0.5	1.941596183	0.801368382	2	2	51	51	1	0	182	19	62	1	1	1	20	12	1	1
6	1	3	20	0	0.7	1.389101113	1.542521652	2	2	54	51	1	1	181	20	127	1	1	3	20	12	0	1
6	1	3	21	0	0.7	1.149187745	5.266438165	2	2	51	51	1	1	180	21	57	1	0	2	20	12	1	1
6	1	3	22	1	0.6	2.117501928	2.127948857	2	2	51	51	0	1	179	22	90	2	1	3	20	12	1	1
6	1	3	23	1	0.6	1.509495739	2.263016407	2	2	51	51	0	0	178	23	77	1	1	1	20	12	1	1
6	1	3	24	1	0.8	1.04522968	4.423473086	2	2	54	51	1	1	177	24	106	2	1	1	20	12	0	1
6	1	3	25	0	0.6	1.341287587	2.296707043	2	2	51	51	1	0	176	25	80	2	1	3	20	12	1	1
6	1	3	26	1	0.7	1.229446553	2.086930418	2	2	51	51	1	0	175	26	51	1	0	4	20	12	1	1
6	1	3	27	1	0.8	1.981291333	5.774747369	2	2	54	51	0	1	174	27	102	2	1	1	20	12	0	1
6	1	3	28	1	0.7	1.100784416	0.606320486	2	2	54	51	0	0	173	28	161	1	1	3	20	12	0	1
6	1	3	29	0	0.7	2.323848456	2.487419451	2	2	51	51	1	1	172	29	2	1	0	2	20	12	1	1
6	1	3	30	0	0.6	1.045427885	1.692591505	2	2	54	51	0	0	171	30	122	2	1	3	20	12	0	1
6	1	3	31	0	0.7	1.149510389	3.216297818	2	2	51	51	1	1	170	31	37	1	0	2	20	12	1	1
6	1	3	32	1	0.6	4.085153503	2.21998898	2	2	51	51	1	0	169	32	99	1	1	3	20	12	1	1
6	1	3	33	0	0.5	1.14162261	2.021738057	2	2	51	51	1	1	168	33	34	1	0	4	20	12	1	1
6	1	3	34	1	0.8	1.676901771	2.702649593	2	2	54	51	1	1	167	34	198	2	1	1	20	12	0	1
6	1	3	35	0	0.8	1.093304913	1.808567256	2	2	51	51	0	0	166	35	74	2	0	2	20	12	1	1
6	1	3	36	1	0.9	1.133822709	0.553211558	2	2	54	51	1	0	165	36	196	1	1	1	20	12	0	1
6	1	3	37	0	0.9	1.018129832	0.582877163	2	2	51	51	1	1	164	37	44	1	0	2	20	12	1	1
6	1	3	38	1	0.7	1.069859666	0.532652788	2	2	51	51	0	1	163	38	52	2	1	3	20	12	1	1
6	1	3	39	1	0.7	1.11748974	1.880818977	2	2	51	51	0	0	162	39	3	1	1	1	20	12	1	1
6	1	3	40	0	0.6	7.140909971	1.159237944	2	2	51	51	1	1	161	40	7	1	0	2	20	12	1	1
6	1	3	41	0	0.7	1.341590346	2.951897506	2	2	51	51	0	0	160	41	5	2	1	3	20	12	1	1
6	1	3	42	1	0.7	1.269402769	1.110833974	2	2	54	51	0	1	159	42	103	2	1	3	20	12	0	1
6	1	3	43	1	0.7	1.043734164	0.902699754	2	2	54	51	1	1	158	43	109	2	0	4	20	12	0	1
6	1	3	44	1	0.5	1.141054295	1.532138033	2	2	54	51	1	0	157	44	170	1	1	3	20	12	0	1
6	1	3	45	0	0.7	1.445607424	1.768765948	2	2	54	51	1	0	156	45	183	2	0	2	20	12	0	1
6	1	3	46	0	0.6	1.227601133	1.04069804	2	2	51	51	0	0	155	46	46	2	0	2	20	12	1	1
6	1	3	47	0	0.5	3.997428983	0.358497852	2	2	51	51	0	0	154	47	96	2	1	3	20	12	1	1
6	1	3	48	1	0.7	1.341535824	1.727929036	2	2	54	51	1	1	153	48	185	2	1	3	20	12	0	1
6	1	3	49	1	0.7	1.197115127	1.630099923	2	2	54	51	1	0	152	49	186	1	1	1	20	12	0	1
6	1	3	50	0	0.6	1.093239166	1.189822732	2	2	51	51	1	1	151	50	84	1	0	4	20	12	1	1
6	1	3	51	0	0.6	1.165333093	1.823361091	2	2	51	51	0	0	150	51	64	2	1	3	20	12	1	1
6	1	3	52	1	0.7	1.132737714	0.507753718	2	2	51	51	1	1	149	52	83	2	1	1	20	12	1	1
6	1	3	53	1	0.6	1.021209703	0.594138592	2	2	54	51	1	0	148	53	140	1	1	1	20	12	0	1
6	1	3	54	1	0.7	1.893628391	0.310508572	2	2	54	51	0	1	147	54	119	2	1	1	20	12	0	1
6	1	3	55	0	0.8	2.135594043	0.710887598	2	2	51	51	0	1	146	55	32	1	0	2	20	12	1	1
6	1	3	56	1	0.7	1.165196466	0.927227751	2	2	51	51	1	1	145	56	56	2	1	3	20	12	1	1
6	1	3	57	0	0.7	1.085506294	0.807342427	2	2	51	51	1	0	144	57	30	2	0	2	20	12	1	1
6	1	3	58	1	0.7	1.021873914	2.696100498	2	2	54	51	0	0	143	58	113	1	1	3	20	12	0	1
6	1	3	59	1	0.7	1.141578993	0.895707103	2	2	54	51	1	1	142	59	153	2	1	1	20	12	0	1
6	1	3	60	1	0.6	1.397685174	1.014791269	2	2	51	51	0	1	141	60	73	2	1	3	20	12	1	1
6	1	3	61	1	0.7	1.085497635	1.06995601	2	2	54	51	0	1	140	61	104	2	0	4	20	12	0	1
6	1	3	62	1	0.8	1.177701646	0.361605304	2	2	51	51	0	0	139	62	23	1	1	1	20	12	1	1
6	1	3	63	1	0.8	0.933659334	0.296491199	2	2	54	51	1	0	138	63	132	1	1	3	20	12	0	1
6	1	3	64	0	0.8	0.981845857	0.672306629	2	2	51	51	0	1	137	64	31	1	0	2	20	12	1	1
6	1	3	65	0	0.6	1.279896715	1.154209381	2	2	51	51	1	0	136	65	72	2	0	2	20	12	1	1
6	1	3	66	1	0.6	1.477838786	2.806535176	2	2	51	51	1	1	135	66	45	2	1	1	20	12	1	1
6	1	3	67	0	0.7	1.197528214	3.547732705	2	2	54	51	0	0	134	67	116	2	0	2	20	12	0	1
6	1	3	68	1	0.7	1.076790417	1.318702638	2	2	54	51	1	0	133	68	121	1	1	1	20	12	0	1
6	1	3	69	0	0.7	1.061090549	1.903373265	2	2	51	51	0	1	132	69	68	1	1	3	20	12	1	1
6	1	3	70	1	0.7	0.94142524	0.477760017	2	2	54	51	1	0	131	70	180	1	1	1	20	12	0	1
6	1	3	71	1	0.8	1.077551485	1.975304908	2	2	54	51	1	0	130	71	134	1	1	1	20	12	0	1
6	1	3	72	0	0.5	2.101645228	0.320792126	2	2	54	51	0	0	129	72	130	2	0	2	20	12	0	1
6	1	3	73	1	0.6	1.07718394	0.416014751	2	2	54	51	1	0	128	73	166	1	1	3	20	12	0	1
6	1	3	74	1	0.7	1.003580065	0.712963937	2	2	54	51	0	0	127	74	175	1	1	1	20	12	0	1
6	1	3	75	0	0.8	1.503468775	0.396590045	2	2	51	51	0	1	126	75	20	1	1	3	20	12	1	1
6	1	3	76	0	0.5	3.307424724	0.322334146	2	2	54	51	0	0	125	76	120	2	0	4	20	12	0	1
6	1	3	77	1	0.7	1.109217098	0.672222279	2	2	51	51	0	1	124	77	36	2	1	3	20	12	1	1
6	1	3	78	0	0.7	1.005395659	0.420579553	2	2	54	51	1	1	123	78	169	1	1	3	20	12	0	1
6	1	3	79	1	0.7	1.068771143	0.305354286	2	2	54	51	1	0	122	79	163	1	1	3	20	12	0	1
6	1	3	80	1	0.7	1.13190224	0.375131335	2	2	54	51	0	0	121	80	139	1	1	1	20	12	0	1
6	1	3	81	1	0.7	1.325368988	0.335111938	2	2	51	51	0	0	120	81	22	1	1	3	20	12	1	1
6	1	3	82	1	0.7	1.199448041	0.279425386	2	2	51	51	0	0	119	82	87	1	1	1	20	12	1	1
6	1	3	83	1	0.8	0.803939464	0.394039361	2	2	51	51	1	0	118	83	86	1	1	1	20	12	1	1
6	1	3	84	1	0.7	0.837934463	0.383252598	2	2	54	51	1	1	117	84	157	2	1	1	20	12	0	1
6	1	3	85	1	0.8	0.738137735	0.416734766	2	2	51	51	0	1	116	85	43	2	1	1	20	12	1	1
6	1	3	86	1	0.8	0.94910423	0.523376613	2	2	54	51	0	1	115	86	108	2	1	1	20	12	0	1
6	1	3	87	0	0.9	1.093213187	0.683512894	2	2	54	51	0	0	114	87	133	2	0	2	20	12	0	1
6	1	3	88	0	0.7	1.751597376	0.632302947	2	2	51	51	1	0	113	88	100	2	0	2	20	12	1	1
6	1	3	89	1	0.7	1.088499892	0.255172887	2	2	51	51	0	1	112	89	92	2	1	1	20	12	1	1
6	1	3	90	1	0.6	0.941279312	0.823276421	2	2	51	51	1	0	111	90	15	1	0	4	20	12	1	1
6	1	3	91	0	0.6	0.819791994	0.642338585	2	2	51	51	0	1	110	91	53	1	0	2	20	12	1	1
6	1	3	92	1	0.4	0.712770415	2.206346208	2	2	51	51	1	0	109	92	28	1	1	3	20	12	1	1
6	1	3	93	1	0.6	1.108982972	3.518867937	2	2	54	51	0	1	108	93	182	2	0	4	20	12	0	1
6	1	3	94	1	0.6	1.101599044	1.031264392	2	2	51	51	1	1	107	94	26	2	1	1	20	12	1	1
6	1	3	95	1	0.7	1.013512432	1.766708211	2	2	54	51	0	0	106	95	143	1	1	3	20	12	0	1
6	1	3	96	1	0.7	1.005637802	1.282187103	2	2	54	51	0	1	105	96	115	2	1	1	20	12	0	1
6	1	3	97	0	0.7	0.964879467	0.373977385	2	2	51	51	1	1	104	97	50	1	1	3	20	12	1	1
6	1	3	98	0	0.7	1.366698846	0.260418257	2	2	54	51	1	0	103	98	146	2	0	2	20	12	0	1
6	1	3	99	0	0.8	2.421093539	2.238121186	2	2	51	51	0	1	102	99	71	1	0	2	20	12	1	1
6	1	3	100	0	0.7	1.18964717	1.761878493	2	2	51	51	0	0	101	100	35	2	0	2	20	12	1	1
6	1	3	101	1	0.6	1.101357542	1.870080642	2	2	54	54	0	0	100	101	193	1	0	4	20	12	0	1
6	1	3	102	0	0.6	1.205566089	0.791365778	2	2	54	54	1	1	99	102	136	1	0	2	20	12	0	1
6	1	3	103	1	0.7	0.965935918	1.038300981	2	2	51	54	1	0	98	103	76	1	1	3	20	12	1	1
6	1	3	104	1	0.8	1.333465876	1.51805844	2	2	54	54	1	0	97	104	188	1	1	1	20	12	0	1
6	1	3	105	1	0.8	1.165405576	0.935381406	2	2	54	54	0	1	96	105	125	2	1	1	20	12	0	1
6	1	3	106	0	0.7	1.07728176	0.550909112	2	2	54	54	1	1	95	106	135	1	0	2	20	12	0	1
6	1	3	107	1	0.7	0.989536714	0.294727561	2	2	54	54	0	0	94	107	110	1	1	1	20	12	0	1
6	1	3	108	0	0.7	1.020050622	0.334955106	2	2	54	54	1	1	93	108	112	1	0	2	20	12	0	1
6	1	3	109	0	0.8	0.987412588	0.486358511	2	2	54	54	1	0	92	109	151	2	1	3	20	12	0	1
6	1	3	110	0	0.6	0.973208236	0.440598232	2	2	54	54	0	1	91	110	137	1	1	3	20	12	0	1
6	1	3	111	1	0.6	1.185728617	0.273144412	2	2	54	54	1	1	90	111	159	2	1	1	20	12	0	1
6	1	3	112	0	0.6	1.017891217	0.279422179	2	2	51	54	1	0	89	112	27	2	0	4	20	12	1	1
6	1	3	113	1	0.6	1.004938313	0.551548948	2	2	54	54	0	0	88	113	171	1	1	1	20	12	0	1
6	1	3	114	0	0.6	1.082805514	0.583536563	2	2	51	54	1	0	87	114	11	2	0	2	20	12	1	1
6	1	3	115	1	0.7	0.989165962	0.383243297	2	2	54	54	1	1	86	115	152	2	1	1	20	12	0	1
6	1	3	116	1	0.7	1.965284857	0.313546749	2	2	51	54	0	1	85	116	19	2	1	3	20	12	1	1
6	1	3	117	0	0.8	1.078242636	0.406759744	2	2	54	54	0	0	84	117	156	2	0	2	20	12	0	1
6	1	3	118	1	0.7	0.92342068	0.293740066	2	2	51	54	1	1	83	118	21	2	1	1	20	12	1	1
6	1	3	119	1	0.7	0.972906759	0.327294396	2	2	54	54	1	0	82	119	131	1	1	1	20	12	0	1
6	1	3	120	0	0.7	1.035502895	0.250019564	2	2	51	54	0	1	81	120	48	1	0	2	20	12	1	1
6	1	3	121	0	0.6	1.421452103	0.513131224	2	2	54	54	0	0	80	121	149	2	0	2	20	12	0	1
6	1	3	122	0	0.6	1.03942241	0.591307279	2	2	51	54	0	1	79	122	12	1	0	2	20	12	1	1
6	1	3	123	1	0.7	0.92002009	0.323863658	2	2	51	54	1	0	78	123	47	1	1	3	20	12	1	1
6	1	3	124	0	0.8	1.36510519	0.789171094	2	2	51	54	1	0	77	124	95	2	0	2	20	12	1	1
6	1	3	125	0	0.8	1.053621951	1.829121536	2	2	51	54	1	0	76	125	61	2	0	2	20	12	1	1
6	1	3	126	0	0.7	1.020466275	2.110218833	2	2	54	54	1	0	75	126	192	2	0	2	20	12	0	1
6	1	3	127	1	0.6	1.261597735	1.59075981	2	2	54	54	1	0	74	127	178	1	1	1	20	12	0	1
6	1	3	128	1	0.8	0.954012844	0.504998416	2	2	54	54	1	1	73	128	165	2	1	3	20	12	0	1
6	1	3	129	0	0.7	1.055710157	0.4067312	2	2	54	54	1	0	72	129	142	2	0	2	20	12	0	1
6	1	3	130	1	0.7	1.045256941	0.709302281	2	2	54	54	0	1	71	130	111	2	1	1	20	12	0	1
6	1	3	131	1	0.8	0.797633153	1.817498977	2	2	54	54	0	1	70	131	128	2	1	1	20	12	0	1
6	1	3	132	1	0.6	1.221439787	1.886671148	2	2	54	54	0	1	69	132	123	2	1	1	20	12	0	1
6	1	3	133	0	0.7	1.004680775	1.255179943	2	2	54	54	0	0	68	133	107	2	0	2	20	12	0	1
6	1	3	134	1	0.7	1.061734234	1.297802301	2	2	54	54	0	1	67	134	147	2	1	3	20	12	0	1
6	1	3	135	1	0.6	3.225095671	1.518754081	2	2	51	54	1	0	66	135	55	1	1	1	20	12	1	1
6	1	3	136	1	0.5	0.965435916	0.406914331	2	2	51	54	1	0	65	136	58	1	1	3	20	12	1	1
6	1	3	137	1	0.7	1.508657378	0.486360756	2	2	54	54	1	1	64	137	200	2	1	1	20	12	0	1
6	1	3	138	1	0.7	0.741520044	1.646200691	2	2	54	54	1	0	63	138	144	1	1	1	20	12	0	1
6	1	3	139	0	0.7	1.141646664	3.223279564	2	2	51	54	0	1	62	139	78	1	0	4	20	12	1	1
6	1	3	140	0	0.7	0.9495991	1.263355087	2	2	54	54	0	1	61	140	145	1	0	2	20	12	0	1
6	1	3	141	1	0.7	1.09327669	2.222706438	2	2	54	54	1	0	60	141	105	1	1	1	20	12	0	1
6	1	3	142	1	0.7	1.076878615	0.917726752	2	2	51	54	0	1	59	142	65	2	1	1	20	12	1	1
6	1	3	143	0	0.7	0.717550741	0.902391222	2	2	54	54	0	1	58	143	189	1	1	3	20	12	0	1
6	1	3	144	1	0.8	0.869742154	0.360726212	2	2	54	54	0	1	57	144	118	2	1	1	20	12	0	1
6	1	3	145	0	0.8	1.149500768	0.470617591	2	2	54	54	1	1	56	145	176	1	0	2	20	12	0	1
6	1	3	146	0	0.8	1.037679619	0.474776683	2	2	51	54	0	1	55	146	49	1	0	2	20	12	1	1
6	1	3	147	1	0.8	0.887466084	0.542481883	2	2	54	54	1	1	54	147	126	2	1	1	20	12	0	1
6	1	3	148	0	0.7	0.859780602	0.302522973	2	2	51	54	1	0	53	148	93	2	1	3	20	12	1	1
6	1	3	149	1	0.6	0.884818223	1.12633243	2	2	51	54	0	0	52	149	81	1	1	1	20	12	1	1
6	1	3	150	1	0.7	1.213680617	2.525363151	2	2	54	54	1	0	51	150	179	1	1	1	20	12	0	1
6	1	3	151	1	0.6	1.101332205	1.629868043	2	2	51	54	0	1	50	151	88	2	1	1	20	12	1	1
6	1	3	152	1	0.7	1.037469227	0.454501108	2	2	51	54	1	1	49	152	70	2	1	1	20	12	1	1
6	1	3	153	1	0.7	1.120616757	0.870978336	2	2	54	54	1	0	48	153	187	1	1	3	20	12	0	1
6	1	3	154	0	0.9	0.974760198	1.846778115	2	2	51	54	0	1	47	154	8	1	0	2	20	12	1	1
6	1	3	155	1	0.6	1.149609171	0.811702611	2	2	54	54	1	1	46	155	124	2	1	1	20	12	0	1
6	1	3	156	1	0.7	1.053316305	1.311119222	2	2	54	54	0	0	45	156	162	1	1	1	20	12	0	1
6	1	3	157	0	0.6	1.789255635	1.491654875	2	2	51	54	1	1	44	157	29	1	0	2	20	12	1	1
6	1	3	158	0	0.7	1.045748605	3.183659783	2	2	54	54	0	0	43	158	177	2	0	2	20	12	0	1
6	1	3	159	0	0.7	1.65607071	2.226614086	2	2	54	54	1	0	42	159	154	2	0	2	20	12	0	1
6	1	3	160	1	0.6	1.461234809	2.220556654	2	2	54	54	0	0	41	160	168	1	1	1	20	12	0	1
6	1	3	161	1	0.7	1.34143608	3.391766742	2	2	54	54	0	1	40	161	114	2	1	1	20	12	0	1
6	1	3	162	1	0.8	1.117553243	2.575904077	2	2	51	54	0	1	39	162	59	2	1	1	20	12	1	1
6	1	3	163	1	0.7	1.005653197	1.394195231	2	2	54	54	0	0	38	163	101	1	1	1	20	12	0	1
6	1	3	164	1	0.6	1.533774537	1.694789076	2	2	51	54	1	0	37	164	38	1	0	4	20	12	1	1
6	1	3	165	0	0.8	1.157453974	0.782830466	2	2	54	54	1	0	36	165	195	2	1	3	20	12	0	1
6	1	3	166	1	0.7	1.02307116	2.406754933	2	2	51	54	0	1	35	166	40	2	1	1	20	12	1	1
6	1	3	167	1	0.7	1.094908512	3.19653379	2	2	54	54	1	1	34	167	199	2	1	3	20	12	0	1
6	1	3	168	1	0.6	1.229706336	0.904886741	2	2	54	54	0	0	33	168	117	1	1	1	20	12	0	1
6	1	3	169	1	0.5	1.277597156	1.239350184	2	2	54	54	1	1	32	169	174	2	1	1	20	12	0	1
6	1	3	170	1	0.7	1.345071758	0.870399116	2	2	51	54	0	1	31	170	63	2	1	1	20	12	1	1
6	1	3	171	1	0.7	1.141812797	0.601443303	2	2	54	54	0	0	30	171	160	1	1	3	20	12	0	1
6	1	3	172	1	0.7	0.981283315	0.303184297	2	2	51	54	1	1	29	172	79	2	1	1	20	12	1	1
6	1	3	173	0	0.7	1.249614046	1.177238655	2	2	51	54	1	0	28	173	4	2	0	2	20	12	1	1
6	1	3	174	1	0.7	1.061395233	3.303758064	2	2	51	54	1	1	27	174	94	2	1	1	20	12	1	1
6	1	3	175	1	0.7	1.397562018	0.631459133	2	2	54	54	0	1	26	175	129	2	1	1	20	12	0	1
6	1	3	176	1	0.7	1.021672181	2.040070712	2	2	54	54	1	1	25	176	167	2	1	1	20	12	0	1
6	1	3	177	1	0.7	1.189539729	2.422697586	2	2	51	54	0	0	24	177	9	1	1	1	20	12	1	1
6	1	3	178	1	0.7	1.085617263	0.679132505	2	2	54	54	0	1	23	178	173	2	1	1	20	12	0	1
6	1	3	179	1	0.7	1.029670287	0.57505417	2	2	51	54	0	1	22	179	6	2	1	3	20	12	1	1
6	1	3	180	0	0.6	1.965086973	1.48393804	2	2	51	54	0	0	21	180	41	2	0	2	20	12	1	1
6	1	3	181	1	0.7	1.037448701	2.222066923	2	2	54	54	0	0	20	181	158	1	1	1	20	12	0	1
6	1	3	182	0	0.7	1.045838406	1.468624318	2	2	54	54	1	0	19	182	194	2	0	4	20	12	0	1
6	1	3	183	1	0.8	1.421367112	1.932871454	2	2	51	54	0	1	18	183	18	2	1	1	20	12	1	1
6	1	3	184	0	0.8	1.317742596	1.054375771	2	2	54	54	1	1	17	184	138	1	1	3	20	12	0	1
6	1	3	185	1	0.8	1.042488169	0.885404947	2	2	51	54	1	1	16	185	10	2	1	1	20	12	1	1
6	1	3	186	1	0.8	1.045300238	0.671133115	2	2	54	54	0	1	15	186	184	2	1	1	20	12	0	1
6	1	3	187	0	0.7	1.356884183	0.289114647	2	2	51	54	0	0	14	187	13	2	0	2	20	12	1	1
6	1	3	188	0	0.7	1.096142641	0.788143829	2	2	51	54	0	0	13	188	67	2	0	2	20	12	1	1
6	1	3	189	0	0.6	2.148645409	0.766837461	2	2	51	54	1	0	12	189	60	2	0	4	20	12	1	1
6	1	3	190	1	0.5	1.309529928	1.064468818	2	2	51	54	0	0	11	190	85	1	1	1	20	12	1	1
6	1	3	191	1	0.7	1.048387806	1.127079065	2	2	54	54	1	1	10	191	191	2	1	1	20	12	0	1
6	1	3	192	0	0.7	1.432141047	3.19636445	2	2	54	54	0	0	9	192	181	2	0	2	20	12	0	1
6	1	3	193	1	0.6	1.443672843	0.806924209	2	2	51	54	0	0	8	193	82	1	1	1	20	12	1	1
6	1	3	194	0	0.7	1.005269616	1.418326177	2	2	51	54	0	1	7	194	25	1	0	2	20	12	1	1
6	1	3	195	0	0.7	1.918935737	0.882512697	2	2	51	54	0	0	6	195	16	2	0	2	20	12	1	1
6	1	3	196	0	0.7	1.461620314	1.107545956	2	2	51	54	0	0	5	196	1	2	1	3	20	12	1	1
6	1	3	197	1	0.7	1.589206437	2.874888871	2	2	51	54	1	1	4	197	98	2	1	1	20	12	1	1
6	1	3	198	1	0.6	1.189599062	0.806380589	2	2	51	54	1	1	3	198	24	2	1	3	20	12	1	1
6	1	3	199	1	0.7	0.90181476	1.408110294	2	2	51	54	1	0	2	199	91	1	1	1	20	12	1	1
6	1	3	200	1	0.7	1.157433447	1.174407342	2	2	54	54	1	1	1	200	155	2	1	1	20	12	0	1
7	1	3	1	1	0.9	1.238075745	2.817311988	2	2	54	51	0	1	200	1	197	2	1	1	21	11.4	0	1
7	1	3	2	1	0.7	0.859952159	2.65748267	2	2	51	51	1	0	199	2	69	1	1	1	21	11.4	1	1
7	1	3	3	0	0.8	1.051819891	0.765471795	2	2	51	51	0	0	198	3	89	2	0	2	21	11.4	1	1
7	1	3	4	0	0.8	0.524806349	2.407743346	2	2	51	51	0	1	197	4	33	1	1	3	21	11.4	1	1
7	1	3	5	0	0.9	1.588464202	0.715552475	2	2	51	51	0	1	196	5	66	1	0	2	21	11.4	1	1
7	1	3	6	1	0.6	1.078524503	1.914133485	2	2	54	51	1	1	195	6	148	2	1	3	21	11.4	0	1
7	1	3	7	1	0.5	1.244415047	4.179512106	2	2	51	51	1	1	194	7	97	2	1	3	21	11.4	1	1
7	1	3	8	1	0.8	1.011929595	0.536829053	2	2	51	51	1	0	193	8	75	1	1	1	21	11.4	1	1
7	1	3	9	1	0.9	0.875762729	0.721692922	2	2	54	51	0	1	192	9	172	2	1	1	21	11.4	0	1
7	1	3	10	1	0.8	0.935857326	1.67568014	2	2	51	51	1	0	191	10	17	1	1	1	21	11.4	1	1
7	1	3	11	1	0.7	0.653057186	1.451698622	2	2	54	51	0	1	190	11	164	2	1	1	21	11.4	0	1
7	1	3	12	1	0.5	1.786744684	0.300375804	2	2	54	51	1	1	189	12	141	2	0	4	21	11.4	0	1
7	1	3	13	0	0.6	1.468141903	1.252474862	2	2	51	51	0	0	188	13	39	2	0	2	21	11.4	1	1
7	1	3	14	0	0.8	1.546485608	0.699870841	2	2	54	51	1	1	187	14	150	1	0	2	21	11.4	0	1
7	1	3	15	1	0.9	1.055379074	0.596442229	2	2	51	51	0	0	186	15	54	1	1	1	21	11.4	1	1
7	1	3	16	0	0.8	1.300028032	0.72107551	2	2	51	51	0	1	185	16	14	1	0	2	21	11.4	1	1
7	1	3	17	0	0.8	1.132454598	0.524231594	2	2	51	51	0	0	184	17	42	2	0	2	21	11.4	1	1
7	1	3	18	1	0.9	0.932438304	0.772166149	2	2	54	51	1	0	183	18	190	1	1	1	21	11.4	0	1
7	1	3	19	1	0.6	1.15610839	0.650789278	2	2	51	51	1	0	182	19	62	1	1	3	21	11.4	1	1
7	1	3	20	0	0.6	1.524689185	1.379595433	2	2	54	51	1	1	181	20	127	1	1	3	21	11.4	0	1
7	1	3	21	0	0.8	1.092154725	0.835827947	2	2	51	51	1	1	180	21	57	1	0	2	21	11.4	1	1
7	1	3	22	0	0.6	1.539918906	0.929503687	2	2	51	51	0	1	179	22	90	1	0	2	21	11.4	1	1
7	1	3	23	1	0.8	1.252623586	0.676681471	2	2	51	51	0	0	178	23	77	1	1	1	21	11.4	1	1
7	1	3	24	1	0.6	1.764125258	1.075588923	2	2	54	51	1	1	177	24	106	2	1	3	21	11.4	0	1
7	1	3	25	1	0.6	1.348260292	0.739095614	2	2	51	51	1	0	176	25	80	1	1	1	21	11.4	1	1
7	1	3	26	1	0.9	1.076486882	0.875540557	2	2	51	51	1	0	175	26	51	1	1	1	21	11.4	1	1
7	1	3	27	1	0.9	1.444651043	0.747257326	2	2	54	51	0	1	174	27	102	2	1	1	21	11.4	0	1
7	1	3	28	0	0.8	1.380224937	0.339460096	2	2	54	51	0	0	173	28	161	2	0	2	21	11.4	0	1
7	1	3	29	0	0.7	3.980267081	1.611602992	2	2	51	51	1	1	172	29	2	1	0	2	21	11.4	1	1
